,subject,trial,prime,cue,resp,rt
0,243,1,l,r,none,
1,243,2,r,r,r,478.0
2,243,3,r,l,l,482.0
3,243,4,l,l,l,500.0
4,243,5,r,r,r,400.0
5,243,6,r,r,l,200.0
6,243,7,l,l,l,440.0
7,243,8,l,r,r,340.0
8,243,9,r,r,l,220.0
9,243,10,r,l,l,424.0
10,243,11,l,r,l,322.0
11,243,12,r,l,r,304.0
12,243,13,l,r,l,210.0
13,243,14,l,l,l,408.0
14,243,15,l,l,l,434.0
15,243,16,r,l,r,350.0
16,243,17,l,l,l,359.0
17,243,18,l,r,r,495.0
18,243,19,r,fc,none,
19,243,20,l,fc,none,
20,243,21,r,l,l,382.0
21,243,22,r,fc,l,724.0
22,243,23,l,fc,r,494.0
23,243,24,r,r,r,479.0
24,243,25,r,l,l,354.0
25,243,26,r,fc,r,410.0
26,243,27,r,fc,r,544.0
27,243,28,r,fc,l,414.0
28,243,29,l,fc,l,406.0
29,243,30,r,l,l,372.0
30,243,31,l,fc,r,466.0
31,243,32,l,fc,l,288.0
32,243,33,r,fc,r,442.0
33,243,34,l,fc,l,488.0
34,243,35,l,fc,l,362.0
35,243,36,l,r,l,294.0
36,243,37,l,l,l,402.0
37,243,38,l,l,l,328.0
38,243,39,l,r,l,322.0
39,243,40,r,l,l,456.0
40,243,41,r,fc,r,432.0
41,243,42,r,r,r,323.0
42,243,43,l,fc,l,352.0
43,243,44,l,r,r,521.0
44,243,45,l,l,l,553.0
45,243,46,r,r,r,377.0
46,243,47,r,r,r,441.0
47,243,48,r,fc,r,493.0
48,243,49,l,l,l,395.0
49,243,50,r,l,r,347.0
50,243,51,l,r,r,437.0
51,243,52,l,r,r,397.0
52,243,53,l,r,l,325.0
53,243,54,r,l,l,439.0
54,243,55,r,r,r,367.0
55,243,56,l,r,r,441.0
56,243,57,l,r,r,421.0
57,243,58,l,r,r,421.0
58,243,59,r,l,l,441.0
59,243,60,l,l,l,417.0
60,243,61,r,l,r,325.0
61,243,62,l,l,l,395.0
62,243,63,l,r,r,551.0
63,243,64,r,r,r,361.0
64,243,65,r,l,r,293.0
65,243,66,r,r,r,397.0
66,243,67,l,r,l,309.0
67,243,68,l,r,r,435.0
68,243,69,r,r,r,367.0
69,243,70,r,r,r,360.0
70,243,71,l,l,l,496.0
71,243,72,l,l,l,415.0
72,243,73,r,l,l,447.0
73,243,74,l,l,l,313.0
74,243,75,l,l,l,314.0
75,243,76,l,l,l,345.0
76,243,77,l,r,l,279.0
77,243,78,r,l,l,427.0
78,243,79,r,r,r,461.0
79,243,80,r,r,r,465.0
80,243,81,r,r,r,331.0
81,243,82,r,r,r,365.0
82,243,83,l,l,l,419.0
83,243,84,r,l,l,471.0
84,243,85,r,r,r,385.0
85,243,86,l,l,l,495.0
86,243,87,l,r,r,475.0
87,243,88,l,l,l,415.0
88,243,89,r,l,l,443.0
89,243,90,r,r,r,377.0
90,243,91,r,l,l,465.0
91,243,92,r,l,none,
92,243,93,r,r,r,439.0
93,243,94,r,l,l,335.0
94,243,95,r,l,l,407.0
95,243,96,l,l,l,341.0
96,243,97,r,r,r,437.0
97,243,98,l,r,r,537.0
98,243,99,l,l,none,
99,243,100,l,l,l,384.0
100,243,101,l,r,r,466.0
101,243,102,r,l,l,368.0
102,243,103,l,l,l,366.0
103,243,104,r,l,l,396.0
104,243,105,l,r,r,435.0
105,243,106,l,r,r,503.0
106,243,107,r,r,r,401.0
107,243,108,r,r,r,315.0
108,243,109,l,r,r,409.0
109,243,110,r,l,l,383.0
110,243,111,r,fc,r,537.0
111,243,112,r,fc,r,533.0
112,243,113,r,r,r,341.0
113,243,114,l,fc,r,509.0
114,243,115,r,r,none,
115,243,116,r,l,l,379.0
116,243,117,r,fc,l,555.0
117,243,118,r,r,r,499.0
118,243,119,r,r,r,323.0
119,243,120,l,fc,l,397.0
120,243,121,r,fc,l,493.0
121,243,122,r,l,l,377.0
122,243,123,l,fc,l,421.0
123,243,124,l,r,r,449.0
124,243,125,l,fc,r,454.0
125,243,126,r,l,l,462.0
126,243,127,l,fc,l,460.0
127,243,128,l,r,r,443.0
128,243,129,l,fc,l,317.0
129,243,130,r,l,l,385.0
130,243,131,r,fc,r,351.0
131,243,132,l,l,l,329.0
132,243,133,r,r,r,339.0
133,243,134,l,l,l,303.0
134,243,135,l,l,l,377.0
135,243,136,r,fc,r,405.0
136,243,137,r,r,l,215.0
137,243,138,l,l,l,387.0
138,243,139,l,fc,l,337.0
139,243,140,l,l,l,353.0
140,243,141,l,fc,l,330.0
141,243,142,r,r,l,392.0
142,243,143,r,l,none,
143,243,144,l,r,r,423.0
144,243,145,r,fc,r,425.0
145,243,146,l,fc,l,311.0
146,243,147,r,fc,l,497.0
147,243,148,l,fc,l,365.0
148,243,149,l,l,l,359.0
149,243,150,r,fc,r,411.0
150,243,151,r,l,l,453.0
151,243,152,r,r,r,360.0
152,243,153,r,fc,l,368.0
153,243,154,l,fc,l,274.0
154,243,155,l,l,l,270.0
155,243,156,r,fc,l,412.0
156,243,157,r,fc,l,452.0
157,243,158,r,fc,l,456.0
158,243,159,l,r,l,356.0
159,243,160,r,fc,r,531.0
160,243,161,l,l,l,521.0
161,243,162,r,l,l,394.0
162,243,163,r,fc,l,277.0
163,243,164,r,fc,l,513.0
164,243,165,r,r,r,569.0
165,243,166,r,fc,r,355.0
166,243,167,l,r,r,415.0
167,243,168,l,l,l,363.0
168,243,169,l,r,l,329.0
169,243,170,r,r,r,343.0
170,243,171,l,fc,l,481.0
171,243,172,r,fc,r,325.0
172,243,173,l,fc,r,279.0
173,243,174,l,fc,l,331.0
174,243,175,r,l,r,326.0
175,243,176,l,r,r,459.0
176,243,177,r,l,l,379.0
177,243,178,l,l,l,358.0
178,243,179,r,fc,r,442.0
179,243,180,l,fc,l,572.0
180,243,181,l,fc,l,632.0
181,243,182,r,fc,l,448.0
182,243,183,l,r,l,330.0
183,243,184,r,fc,r,338.0
184,243,185,l,l,r,306.0
185,243,186,r,fc,r,388.0
186,243,187,r,fc,r,382.0
187,243,188,r,l,l,566.0
188,243,189,l,fc,r,452.0
189,243,190,r,fc,r,412.0
190,243,191,l,fc,r,452.0
191,243,192,l,fc,l,552.0
192,243,193,l,fc,l,414.0
193,243,194,l,r,l,334.0
194,243,195,l,l,l,546.0
195,243,196,r,fc,r,424.0
196,243,197,l,l,l,414.0
197,243,198,l,r,l,362.0
198,243,199,l,fc,r,488.0
199,243,200,l,fc,r,458.0
200,243,201,l,fc,r,462.0
201,243,202,r,r,r,454.0
202,243,203,r,l,l,478.0
203,243,204,l,fc,l,389.0
204,243,205,l,r,r,446.0
205,243,206,l,fc,r,464.0
206,243,207,l,r,l,286.0
207,243,208,r,fc,r,337.0
208,243,209,r,l,r,324.0
209,243,210,r,fc,r,458.0
210,243,211,r,r,r,346.0
211,243,212,l,r,r,372.0
212,243,213,l,fc,r,478.0
213,243,214,r,fc,r,430.0
214,243,215,l,fc,r,436.0
215,243,216,r,l,l,400.0
216,243,217,l,r,r,424.0
217,243,218,r,fc,r,398.0
218,243,219,l,fc,r,566.0
219,243,220,l,fc,l,360.0
220,243,221,r,fc,l,368.0
221,243,222,l,fc,l,358.0
222,243,223,r,r,r,506.0
223,243,224,r,fc,r,404.0
224,243,225,r,l,l,442.0
225,243,226,r,fc,l,556.0
226,243,227,r,fc,l,472.0
227,243,228,l,fc,l,378.0
228,243,229,r,r,r,486.0
229,243,230,r,l,l,488.0
230,243,231,r,r,r,382.0
231,243,232,l,l,none,
232,243,233,l,fc,l,349.0
233,243,234,l,r,r,407.0
234,243,235,l,l,l,281.0
235,243,236,l,r,r,369.0
236,243,237,l,l,l,362.0
237,243,238,r,r,r,300.0
238,243,239,l,fc,l,320.0
239,243,240,r,fc,r,304.0
240,243,241,r,fc,r,438.0
241,243,242,l,r,l,314.0
242,243,243,l,fc,r,350.0
243,243,244,r,r,r,312.0
244,243,245,r,fc,r,332.0
245,243,246,r,fc,r,387.0
246,243,247,l,fc,r,417.0
247,243,248,r,fc,r,380.0
248,243,249,r,l,l,527.0
249,243,250,l,fc,l,813.0
250,243,251,r,r,r,429.0
251,243,252,l,r,l,279.0
252,243,253,r,l,r,311.0
253,243,254,l,fc,l,355.0
254,243,255,r,fc,r,307.0
255,243,256,l,r,r,469.0
256,243,257,l,fc,r,383.0
257,243,258,r,r,r,301.0
258,243,259,l,fc,r,385.0
259,243,260,r,fc,r,347.0
260,243,261,l,fc,l,349.0
261,243,262,r,l,l,471.0
262,243,263,l,fc,l,365.0
263,243,264,r,fc,l,399.0
264,243,265,r,fc,r,351.0
265,243,266,r,fc,r,341.0
266,243,267,r,fc,l,405.0
267,243,268,l,r,r,483.0
268,243,269,r,r,r,309.0
269,243,270,r,fc,r,318.0
270,243,271,r,fc,l,358.0
271,243,272,l,l,l,346.0
272,243,273,r,r,r,564.0
273,243,274,l,r,l,302.0
274,243,275,r,l,r,328.0
275,243,276,l,l,l,454.0
276,243,277,r,fc,r,329.0
277,243,278,l,r,r,455.0
278,243,279,l,l,l,511.0
279,243,280,r,l,l,561.0
280,243,281,r,fc,r,411.0
281,243,282,l,fc,r,432.0
282,243,283,l,fc,l,687.0
283,243,284,r,fc,r,377.0
284,243,285,r,fc,l,461.0
285,243,286,l,r,r,417.0
286,243,287,l,fc,l,341.0
287,243,288,l,fc,l,349.0
288,243,289,r,l,l,419.0
289,243,290,l,fc,l,331.0
290,243,291,r,l,r,337.0
291,243,292,l,fc,l,373.0
292,243,293,l,r,l,333.0
293,243,294,r,l,l,457.0
294,243,295,l,fc,l,401.0
295,243,296,r,fc,r,373.0
296,243,297,r,l,l,465.0
297,243,298,r,r,r,359.0
298,243,299,l,fc,l,439.0
299,243,300,l,l,l,451.0
300,243,301,r,l,l,421.0
301,243,302,r,fc,l,337.0
302,243,303,l,fc,l,329.0
303,243,304,l,fc,l,279.0
304,243,305,l,fc,l,274.0
305,243,306,r,r,r,370.0
306,243,307,l,fc,l,492.0
307,243,308,l,fc,r,348.0
308,243,309,l,l,l,422.0
309,243,310,r,fc,r,340.0
310,243,311,r,fc,r,380.0
311,243,312,r,l,l,412.0
312,243,313,l,r,l,348.0
313,243,314,r,fc,r,361.0
314,243,315,l,fc,r,385.0
315,243,316,l,l,r,347.0
316,243,317,r,l,l,410.0
317,243,318,r,r,r,343.0
318,243,319,l,fc,l,325.0
319,243,320,r,fc,r,331.0
320,243,321,r,fc,r,341.0
321,243,322,l,fc,r,329.0
322,243,323,l,l,l,375.0
323,243,324,l,l,l,399.0
324,243,325,l,r,l,327.0
325,243,326,r,l,l,525.0
326,243,327,r,r,r,335.0
327,243,328,r,fc,r,371.0
328,243,329,l,fc,r,649.0
329,243,330,l,fc,r,319.0
330,243,331,l,fc,r,323.0
331,243,332,l,fc,l,380.0
332,243,333,r,fc,r,332.0
333,243,334,l,l,l,324.0
334,243,335,l,fc,r,374.0
335,243,336,l,r,r,382.0
336,243,337,r,l,l,350.0
337,243,338,r,fc,r,320.0
338,243,339,r,r,r,528.0
339,243,340,l,l,l,370.0
340,243,341,r,l,r,312.0
341,243,342,l,r,r,452.0
342,243,343,r,r,r,380.0
343,243,344,l,l,l,332.0
344,243,345,r,r,r,302.0
345,243,346,l,fc,r,418.0
346,243,347,l,r,r,378.0
347,243,348,r,fc,r,325.0
348,243,349,r,l,r,323.0
349,243,350,l,fc,none,
350,243,351,l,l,l,366.0
351,243,352,r,r,r,348.0
352,243,353,l,l,l,313.0
353,243,354,r,fc,r,317.0
354,243,355,l,l,l,341.0
355,243,356,l,r,r,493.0
356,243,357,r,fc,l,377.0
357,243,358,r,r,r,305.0
358,243,359,l,l,l,375.0
359,243,360,l,r,r,498.0
360,243,361,l,fc,l,350.0
361,243,362,r,r,r,324.0
362,243,363,r,l,l,366.0
363,243,364,l,r,r,368.0
364,243,365,r,fc,r,406.0
365,243,366,r,r,r,336.0
366,243,367,l,l,l,484.0
367,243,368,r,fc,r,342.0
368,243,369,l,r,r,420.0
369,243,370,r,fc,r,320.0
370,243,371,r,fc,r,284.0
371,243,372,l,l,l,326.0
372,243,373,l,fc,r,548.0
373,243,374,l,fc,l,258.0
374,243,375,r,fc,r,353.0
375,243,376,r,l,none,
376,243,377,l,fc,r,405.0
377,243,378,l,fc,l,472.0
378,243,379,r,r,r,364.0
379,243,380,l,l,l,358.0
380,243,381,r,l,r,302.0
381,243,382,r,r,r,340.0
382,243,383,r,l,l,472.0
383,243,384,l,fc,l,468.0
384,243,385,r,fc,r,326.0
385,243,386,r,l,l,432.0
386,243,387,r,r,r,364.0
387,243,388,r,r,r,566.0
388,243,389,l,l,l,272.0
389,243,390,r,r,r,332.0
390,243,391,r,fc,l,436.0
391,243,392,r,l,r,316.0
392,243,393,r,r,r,384.0
393,243,394,r,fc,r,362.0
394,243,395,l,r,l,334.0
395,243,396,l,l,l,466.0
396,243,397,r,fc,r,364.0
397,243,398,r,fc,r,306.0
398,243,399,r,r,none,
399,243,400,l,r,r,312.0
400,243,401,r,l,r,294.0
401,243,402,r,r,r,354.0
402,243,403,r,fc,l,338.0
403,243,404,r,r,r,410.0
404,243,405,l,fc,r,368.0
405,243,406,r,fc,l,341.0
406,243,407,l,fc,l,277.0
407,243,408,r,l,l,333.0
408,243,409,l,fc,l,364.0
409,243,410,l,r,l,422.0
410,243,411,r,fc,r,440.0
411,243,412,l,fc,r,309.0
412,243,413,r,fc,r,318.0
413,243,414,l,l,r,266.0
414,243,415,l,fc,r,296.0
415,243,416,r,fc,r,360.0
416,243,417,l,fc,r,228.0
417,243,418,r,fc,r,278.0
418,243,419,r,fc,r,282.0
419,243,420,l,fc,r,292.0
420,243,421,r,fc,r,356.0
421,243,422,l,l,l,200.0
422,243,423,r,r,l,236.0
423,243,424,l,l,l,320.0
424,243,425,r,fc,r,772.0
425,243,426,r,l,l,380.0
426,243,427,r,r,r,340.0
427,243,428,l,fc,l,296.0
428,243,429,r,fc,l,296.0
429,243,430,r,l,l,212.0
430,243,431,l,fc,r,262.0
431,243,432,l,l,l,556.0
432,243,433,l,r,r,516.0
433,243,434,r,l,l,355.0
434,243,435,r,l,r,247.0
435,243,436,r,r,r,357.0
436,243,437,l,fc,l,69.0
437,243,438,r,fc,r,405.0
438,243,439,l,fc,l,451.0
439,243,440,r,fc,r,325.0
440,243,441,r,fc,r,375.0
441,243,442,l,l,l,323.0
442,243,443,l,fc,r,345.0
443,243,444,l,fc,l,382.0
444,243,445,l,l,r,230.0
445,243,446,r,fc,l,348.0
446,243,447,l,fc,l,330.0
447,243,448,l,r,r,261.0
448,243,449,r,l,l,360.0
449,243,450,r,l,r,332.0
450,243,451,r,r,r,488.0
451,243,452,r,fc,r,334.0
452,243,453,r,fc,r,358.0
453,243,454,l,fc,l,258.0
454,243,455,l,l,l,386.0
455,243,456,l,r,l,316.0
456,243,457,l,r,l,352.0
457,243,458,r,fc,r,404.0
458,243,459,r,l,r,318.0
459,243,460,l,fc,r,261.0
460,243,461,l,r,l,311.0
461,243,462,r,r,r,287.0
462,243,463,r,fc,r,333.0
463,243,464,r,l,l,369.0
464,243,465,l,fc,r,351.0
465,243,466,r,r,r,317.0
466,243,467,r,fc,l,425.0
467,243,468,l,fc,r,303.0
468,243,469,l,r,r,325.0
469,243,470,r,fc,r,291.0
470,243,471,r,fc,l,501.0
471,243,472,l,l,r,253.0
472,243,473,l,fc,r,341.0
473,243,474,l,r,l,381.0
474,243,475,l,r,r,341.0
475,243,476,l,fc,r,353.0
476,243,477,l,l,r,324.0
477,243,478,l,fc,r,342.0
478,243,479,l,r,r,484.0
479,243,480,l,fc,r,555.0
480,243,481,l,r,l,366.0
481,243,482,l,l,l,512.0
482,243,483,l,fc,l,462.0
483,243,484,l,r,r,468.0
484,243,485,l,r,r,370.0
485,243,486,l,fc,r,311.0
486,243,487,r,fc,r,289.0
487,243,488,l,l,r,263.0
488,243,489,r,fc,l,613.0
489,243,490,r,fc,l,345.0
490,243,491,l,fc,r,379.0
491,243,492,l,fc,r,359.0
492,243,493,l,fc,l,351.0
493,243,494,r,r,r,401.0
494,243,495,r,fc,r,675.0
495,243,496,r,l,r,271.0
496,243,497,r,r,r,401.0
497,243,498,l,l,r,379.0
498,243,499,l,fc,l,323.0
499,243,500,l,r,l,321.0
500,243,501,r,fc,r,295.0
501,243,502,l,r,r,315.0
502,243,503,r,fc,r,275.0
503,243,504,r,l,r,295.0
504,243,505,l,r,none,
505,243,506,r,fc,r,339.0
506,243,507,r,l,r,279.0
507,243,508,r,fc,r,315.0
508,243,509,l,l,l,307.0
509,243,510,l,fc,l,309.0
510,243,511,l,r,l,279.0
511,243,512,r,l,l,387.0
512,243,513,r,l,r,305.0
513,243,514,r,fc,l,591.0
514,243,515,r,fc,r,265.0
515,243,516,l,fc,l,263.0
516,243,517,r,fc,r,353.0
517,243,518,l,fc,r,449.0
518,243,519,r,r,r,523.0
519,243,520,l,fc,l,325.0
520,243,521,l,l,l,355.0
521,243,522,r,fc,l,666.0
522,243,523,l,fc,l,357.0
523,243,524,l,l,l,433.0
524,243,525,r,fc,l,305.0
525,243,526,l,r,r,490.0
526,243,527,r,l,r,340.0
527,243,528,l,l,l,359.0
528,243,529,l,r,r,399.0
529,243,530,r,fc,l,423.0
530,243,531,l,l,l,445.0
531,243,532,l,fc,r,464.0
532,243,533,r,fc,r,337.0
533,243,534,l,fc,l,381.0
534,243,535,l,fc,r,377.0
535,243,536,l,r,r,429.0
536,243,537,l,fc,r,375.0
537,243,538,l,l,l,311.0
538,243,539,r,l,r,401.0
539,243,540,r,fc,l,435.0
540,243,541,r,r,r,379.0
541,243,542,l,r,l,375.0
542,243,543,l,fc,r,383.0
543,243,544,r,l,l,401.0
544,243,545,r,r,r,349.0
545,243,546,r,fc,r,343.0
546,243,547,r,r,r,337.0
547,243,548,r,l,r,353.0
548,243,549,r,l,l,449.0
549,243,550,l,r,r,415.0
550,243,551,l,fc,l,303.0
551,243,552,l,l,r,317.0
552,243,553,r,fc,l,416.0
553,243,554,l,fc,r,292.0
554,243,555,r,r,r,400.0
555,243,556,r,fc,r,336.0
556,243,557,r,r,r,336.0
557,243,558,r,fc,r,332.0
558,243,559,l,fc,r,342.0
559,243,560,l,fc,r,350.0
560,243,561,r,l,l,328.0
561,243,562,l,fc,r,330.0
562,243,563,l,fc,r,400.0
563,243,564,l,r,r,339.0
564,243,565,r,r,r,487.0
565,243,566,l,l,none,
566,243,567,r,fc,r,394.0
567,243,568,r,fc,r,273.0
568,243,569,l,r,r,273.0
569,243,570,l,fc,r,365.0
570,243,571,r,l,r,315.0
571,243,572,l,l,l,359.0
572,243,573,r,r,r,407.0
573,243,574,l,fc,r,349.0
574,243,575,l,fc,l,359.0
575,243,576,l,l,none,
576,243,577,l,fc,l,343.0
577,243,578,l,fc,l,345.0
578,243,579,r,fc,r,286.0
579,243,580,r,l,r,328.0
580,243,581,l,fc,l,402.0
581,243,582,l,fc,r,248.0
582,243,583,l,fc,l,294.0
583,243,584,r,fc,r,374.0
584,243,585,r,r,r,342.0
585,243,586,r,fc,r,334.0
586,243,587,r,l,l,294.0
587,243,588,l,l,l,310.0
588,243,589,r,r,l,320.0
589,243,590,l,l,none,
590,243,591,l,fc,l,316.0
591,243,592,l,fc,r,312.0
592,243,593,l,l,l,354.0
593,243,594,r,fc,l,714.0
594,243,595,l,r,r,398.0
595,243,596,l,l,l,362.0
596,243,597,r,l,none,
597,243,598,r,fc,r,337.0
598,243,599,r,r,r,329.0
599,243,600,r,fc,r,399.0
600,243,601,r,r,r,364.0
601,243,602,l,fc,l,245.0
602,243,603,l,fc,none,
603,243,604,r,l,r,307.0
604,243,605,l,fc,l,448.0
605,243,606,r,fc,l,370.0
606,243,607,r,r,r,428.0
607,243,608,l,r,l,402.0
608,243,609,l,fc,r,340.0
609,243,610,l,l,l,408.0
610,243,611,l,fc,none,
611,243,612,r,r,r,318.0
612,243,613,l,r,r,554.0
613,243,614,r,l,r,290.0
614,243,615,l,r,l,424.0
615,243,616,l,fc,r,374.0
616,243,617,r,fc,r,309.0
617,243,618,l,r,r,316.0
618,243,619,r,fc,r,320.0
619,243,620,l,l,r,304.0
620,243,621,l,l,none,
621,243,622,r,fc,r,450.0
622,243,623,r,fc,l,336.0
623,243,624,r,fc,r,372.0
624,243,625,r,r,l,178.0
625,243,626,r,r,none,
626,243,627,r,fc,r,242.0
627,243,628,r,fc,r,319.0
628,243,629,n,l,r,308.0
629,243,630,n,fc,r,314.0
630,243,631,n,fc,l,278.0
631,243,632,n,r,l,302.0
632,243,633,n,fc,r,320.0
633,243,634,n,r,l,176.0
634,243,635,n,fc,r,336.0
635,243,636,n,l,l,491.0
636,243,637,n,fc,r,337.0
637,243,638,n,fc,l,325.0
638,243,639,n,r,l,327.0
639,243,640,n,fc,r,293.0
640,243,641,n,r,r,213.0
641,243,642,n,l,r,300.0
642,243,643,n,fc,r,334.0
643,243,644,n,fc,l,582.0
644,243,645,n,fc,r,253.0
645,243,646,n,r,r,300.0
646,243,647,n,fc,l,388.0
647,243,648,n,r,r,366.0
648,243,649,n,fc,r,320.0
649,243,650,n,l,l,208.0
650,243,651,n,fc,r,206.0
651,243,652,n,r,r,268.0
652,243,653,n,fc,l,458.0
653,243,654,n,fc,l,354.0
654,243,655,n,r,l,322.0
655,243,656,n,l,r,216.0
656,243,657,n,fc,r,244.0
657,243,658,n,fc,r,358.0
658,243,659,n,r,r,262.0
659,243,660,n,fc,l,336.0
660,243,661,n,r,r,200.0
661,243,662,n,l,r,200.0
662,243,663,n,r,r,331.0
663,243,664,n,r,r,289.0
664,243,665,n,l,r,255.0
665,243,666,n,l,r,351.0
666,243,667,n,r,l,315.0
667,243,668,n,l,l,415.0
668,243,669,n,fc,r,415.0
669,243,670,n,fc,r,323.0
670,243,671,n,fc,r,321.0
671,243,672,n,l,l,337.0
672,243,673,n,fc,r,253.0
673,243,674,n,fc,r,237.0
674,243,675,n,r,l,193.0
675,243,676,n,l,r,276.0
676,243,677,n,fc,r,312.0
677,243,678,n,fc,r,316.0
678,243,679,n,r,r,333.0
679,243,680,n,l,r,332.0
680,243,681,n,l,l,468.0
681,243,682,n,r,r,326.0
682,243,683,n,fc,r,428.0
683,243,684,n,r,r,314.0
684,243,685,n,l,r,314.0
685,243,686,n,fc,l,430.0
686,243,687,n,r,r,384.0
687,243,688,n,fc,r,382.0
688,243,689,n,fc,l,546.0
689,243,690,n,fc,r,275.0
690,243,691,n,fc,r,275.0
691,243,692,n,fc,l,299.0
692,243,693,n,l,r,323.0
693,243,694,n,fc,l,269.0
694,243,695,n,l,r,275.0
695,243,696,n,fc,l,427.0
696,243,697,n,r,r,569.0
697,243,698,n,l,l,295.0
698,243,699,n,r,r,311.0
699,243,700,n,l,l,293.0
700,243,701,n,l,r,269.0
701,243,702,n,r,l,351.0
702,243,703,n,fc,r,331.0
703,243,704,n,fc,r,285.0
704,243,705,n,l,l,563.0
705,243,706,n,fc,r,309.0
706,243,707,n,fc,l,255.0
707,243,708,n,r,r,254.0
708,243,709,n,r,l,374.0
709,243,710,n,fc,r,630.0
710,243,711,n,fc,r,252.0
711,243,712,n,l,r,237.0
712,243,713,n,fc,r,284.0
713,243,714,n,fc,r,498.0
714,243,715,n,fc,r,869.0
715,243,716,n,r,l,375.0
716,243,717,n,fc,r,307.0
717,243,718,n,fc,r,293.0
718,243,719,n,l,r,513.0
719,243,720,n,l,r,385.0
720,243,721,n,r,none,
721,243,722,n,fc,r,363.0
722,243,723,n,l,r,269.0
723,243,724,n,l,l,267.0
724,243,725,n,fc,l,381.0
725,243,726,n,r,l,261.0
726,243,727,n,l,r,317.0
727,243,728,n,r,r,409.0
728,243,729,n,l,none,
729,243,730,n,fc,r,291.0
730,243,731,n,fc,r,305.0
731,243,732,n,fc,r,215.0
732,243,733,n,fc,l,307.0
733,243,734,n,l,r,273.0
734,243,735,n,fc,l,349.0
735,243,736,n,r,r,287.0
736,243,737,n,fc,r,193.0
737,243,738,n,fc,r,431.0
738,243,739,n,fc,r,313.0
739,243,740,n,l,r,391.0
740,243,741,n,r,l,35.0
741,243,742,n,fc,r,201.0
742,243,743,n,fc,l,274.0
743,243,744,n,fc,r,182.0
744,243,745,n,l,r,345.0
745,243,746,n,fc,l,359.0
746,243,747,n,fc,r,271.0
747,243,748,n,r,none,
748,243,749,n,fc,r,277.0
749,243,750,n,r,l,205.0
750,243,751,n,fc,r,279.0
751,243,752,n,l,r,263.0
752,243,753,n,fc,r,241.0
753,243,754,n,l,r,261.0
754,243,755,n,r,r,317.0
755,243,756,n,fc,l,357.0
756,243,757,n,r,l,305.0
757,243,758,n,fc,r,287.0
758,243,759,n,fc,r,309.0
759,243,760,n,fc,r,283.0
760,243,761,n,l,l,364.0
761,243,762,n,fc,r,286.0
762,243,763,n,fc,l,276.0
763,243,764,n,fc,r,252.0
764,243,765,n,fc,r,336.0
765,243,766,n,l,r,268.0
766,243,767,n,fc,r,278.0
767,243,768,n,r,r,542.0
768,243,769,n,fc,r,298.0
769,243,770,n,l,l,210.0
770,243,771,n,fc,r,352.0
771,243,772,n,fc,l,254.0
772,243,773,n,fc,l,274.0
773,243,774,n,fc,l,326.0
774,243,775,n,fc,l,344.0
775,243,776,n,l,l,294.0
776,243,777,n,r,l,309.0
777,243,778,n,fc,r,311.0
778,243,779,n,fc,r,281.0
779,243,780,n,fc,r,278.0
780,243,781,n,l,r,217.0
781,243,782,n,fc,r,289.0
782,243,783,n,l,r,287.0
783,243,784,n,fc,r,385.0
784,243,785,n,fc,l,351.0
785,243,786,n,fc,r,317.0
786,243,787,n,fc,l,213.0
787,243,788,n,r,r,257.0
788,243,789,n,fc,r,356.0
789,243,790,n,fc,r,336.0
790,243,791,n,l,l,244.0
791,243,792,n,fc,r,342.0
792,243,793,n,l,r,188.0
793,243,794,n,r,l,350.0
794,243,795,n,fc,r,360.0
795,243,796,n,l,l,432.0
796,243,797,n,fc,r,332.0
797,243,798,n,r,r,430.0
798,243,799,n,fc,r,312.0
799,243,800,n,fc,l,264.0
800,243,801,n,fc,r,438.0
801,243,802,n,r,r,474.0
802,243,803,n,fc,l,282.0
803,243,804,n,l,l,424.0
804,243,805,n,r,r,282.0
805,243,806,n,l,l,260.0
806,243,807,n,l,r,324.0
807,243,808,n,r,r,426.0
808,243,809,n,l,l,360.0
809,243,810,n,l,r,284.0
810,243,811,n,r,r,421.0
811,243,812,n,l,l,387.0
812,243,813,n,l,l,369.0
813,243,814,n,fc,r,403.0
814,243,815,n,r,l,294.0
815,243,816,n,fc,r,340.0
816,243,817,n,r,r,384.0
817,243,818,n,l,l,374.0
818,243,819,n,l,r,314.0
819,243,820,n,fc,l,322.0
820,243,821,n,r,r,400.0
821,243,822,n,fc,r,340.0
822,243,823,n,l,l,304.0
823,243,824,n,fc,r,306.0
824,243,825,n,fc,r,344.0
825,243,826,n,r,l,294.0
826,243,827,n,l,l,502.0
827,243,828,n,l,l,438.0
828,243,829,n,r,r,518.0
829,243,830,n,fc,l,378.0
830,243,831,n,r,l,278.0
831,243,832,n,l,l,482.0
832,243,833,n,r,r,274.0
833,243,834,n,r,r,346.0
834,243,835,n,l,l,348.0
835,243,836,n,fc,r,382.0
836,243,837,n,fc,l,382.0
837,243,838,n,fc,l,318.0
838,243,839,n,r,r,354.0
839,243,840,n,fc,r,330.0
840,243,841,n,l,r,352.0
841,243,842,n,r,r,355.0
842,243,843,n,fc,l,336.0
843,243,844,n,fc,r,339.0
844,243,845,n,l,l,311.0
845,243,846,n,r,r,336.0
846,243,847,n,fc,r,348.0
847,243,848,n,fc,r,334.0
848,243,849,n,fc,l,303.0
849,243,850,n,r,r,405.0
850,243,851,n,l,l,362.0
851,243,852,n,r,r,344.0
852,243,853,n,fc,l,314.0
853,243,854,n,r,r,306.0
854,243,855,n,fc,l,288.0
855,243,856,n,fc,r,338.0
856,243,857,n,l,l,366.0
857,243,858,n,r,l,312.0
858,243,859,n,fc,r,340.0
859,243,860,n,r,r,468.0
860,243,861,n,fc,l,322.0
861,243,862,n,fc,l,346.0
862,243,863,n,fc,l,348.0
863,243,864,n,l,r,342.0
864,243,865,n,fc,l,324.0
865,243,866,n,fc,l,402.0
866,243,867,n,r,r,480.0
867,243,868,n,r,r,368.0
868,243,869,n,fc,r,338.0
869,243,870,n,fc,l,378.0
870,243,871,n,fc,r,238.0
871,243,872,n,r,r,370.0
872,243,873,n,fc,none,
873,243,874,n,fc,r,312.0
874,243,875,n,fc,r,250.0
875,243,876,n,fc,r,263.0
876,243,877,n,fc,r,321.0
877,243,878,n,r,r,277.0
878,243,879,n,l,r,293.0
879,243,880,n,r,r,357.0
880,243,881,n,fc,l,253.0
881,243,882,n,r,r,321.0
882,243,883,n,fc,l,245.0
883,243,884,n,fc,r,627.0
884,243,885,n,fc,l,257.0
885,243,886,n,l,l,309.0
886,243,887,n,r,l,319.0
887,243,888,n,fc,r,323.0
888,243,889,n,fc,r,281.0
889,243,890,n,l,r,237.0
890,243,891,n,fc,l,237.0
891,243,892,n,fc,r,209.0
892,243,893,n,fc,r,326.0
893,243,894,n,fc,r,312.0
894,243,895,n,fc,l,260.0
895,243,896,n,l,l,409.0
896,243,897,n,r,r,551.0
897,243,898,n,l,l,300.0
898,243,899,n,l,l,336.0
899,243,900,n,fc,l,320.0
900,243,901,n,r,l,320.0
901,243,902,n,fc,r,376.0
902,243,903,n,l,r,275.0
903,243,904,n,fc,r,371.0
904,243,905,n,l,l,437.0
905,243,906,n,r,r,433.0
906,243,907,n,fc,l,333.0
907,243,908,n,l,l,369.0
908,243,909,n,r,r,287.0
909,243,910,n,fc,l,225.0
910,243,911,n,l,r,283.0
911,243,912,n,fc,l,385.0
912,243,913,n,l,r,335.0
913,243,914,n,r,r,471.0
914,243,915,n,l,l,353.0
915,243,916,n,fc,r,269.0
916,243,917,n,l,l,343.0
917,243,918,n,r,r,441.0
918,243,919,n,fc,l,317.0
919,243,920,n,l,l,441.0
920,243,921,n,l,l,417.0
921,243,922,n,fc,r,377.0
922,243,923,n,r,r,501.0
923,243,924,n,fc,r,337.0
924,243,925,n,r,r,361.0
925,243,926,n,fc,r,325.0
926,243,927,n,fc,r,414.0
927,243,928,n,fc,r,374.0
928,243,929,n,fc,l,330.0
929,243,930,n,l,l,264.0
930,243,931,n,r,r,414.0
931,243,932,n,r,l,285.0
932,243,933,n,l,r,323.0
933,243,934,n,l,l,437.0
934,243,935,n,fc,r,337.0
935,243,936,n,fc,r,249.0
936,243,937,n,fc,r,203.0
937,243,938,n,r,r,229.0
938,243,939,n,fc,l,335.0
939,243,940,n,l,l,403.0
940,243,941,n,l,l,289.0
941,243,942,n,fc,l,343.0
942,243,943,n,r,r,357.0
943,243,944,n,fc,l,505.0
944,243,945,n,l,l,375.0
945,243,946,n,fc,none,
946,243,947,n,fc,r,327.0
947,243,948,n,r,r,273.0
948,243,949,n,l,l,465.0
949,243,950,n,l,r,271.0
950,243,951,n,fc,l,325.0
951,243,952,n,fc,l,307.0
952,243,953,n,r,l,293.0
953,243,954,n,r,none,
954,243,955,n,l,l,369.0
955,243,956,n,fc,r,407.0
956,243,957,n,r,l,353.0
957,243,958,n,r,r,324.0
958,243,959,n,l,l,386.0
959,243,960,n,fc,r,252.0
960,243,961,n,fc,r,327.0
961,243,962,n,r,r,285.0
962,243,963,n,r,none,
963,243,964,n,fc,r,287.0
964,243,965,n,fc,l,258.0
965,243,966,n,l,l,309.0
966,243,967,n,r,l,275.0
967,243,968,n,fc,r,331.0
968,243,969,n,fc,r,289.0
969,243,970,n,r,r,315.0
970,243,971,n,fc,r,431.0
971,243,972,n,l,r,297.0
972,243,973,n,r,none,
973,243,974,n,r,l,237.0
974,243,975,n,l,r,197.0
975,243,976,n,fc,r,373.0
976,243,977,n,fc,r,253.0
977,243,978,n,fc,r,53.0
978,243,979,n,r,l,173.0
979,243,980,n,fc,r,369.0
980,243,981,n,l,r,235.0
981,243,982,n,r,l,459.0
982,243,983,n,fc,r,294.0
983,243,984,n,fc,r,322.0
984,243,985,n,l,none,
985,243,986,n,fc,r,352.0
986,243,987,n,fc,r,234.0
987,243,988,n,fc,r,258.0
988,243,989,r,,none,
989,243,990,l,,none,
990,243,991,r,,none,
991,243,992,l,,none,
992,243,993,l,,none,
993,243,994,r,,none,
994,243,995,l,,none,
995,243,996,r,,none,
996,243,997,r,,none,
997,243,998,l,,none,
998,243,999,r,,none,
999,243,1000,r,,none,
1000,243,1001,r,,none,
1001,243,1002,l,,none,
1002,243,1003,l,,none,
1003,243,1004,r,,none,
1004,243,1005,r,,none,
1005,243,1006,l,,none,
1006,243,1007,l,,none,
1007,243,1008,l,,none,
1008,243,1009,r,,none,
1009,243,1010,l,,none,
1010,243,1011,r,,none,
1011,243,1012,l,,none,
1012,243,1013,l,,none,
1013,243,1014,l,,none,
1014,243,1015,r,,none,
1015,243,1016,r,,none,
1016,243,1017,l,,none,
1017,243,1018,l,,none,
1018,243,1019,r,,none,
1019,243,1020,l,,none,
1020,243,1021,l,,none,
1021,243,1022,l,,none,
1022,243,1023,l,,none,
1023,243,1024,l,,none,
1024,243,1025,r,,none,
1025,243,1026,r,,none,
1026,243,1027,l,,none,
1027,243,1028,l,,none,
1028,243,1029,r,,none,
1029,243,1030,r,,none,
1030,243,1031,r,,none,
1031,243,1032,l,,none,
1032,243,1033,r,,none,
1033,243,1034,r,,none,
1034,243,1035,l,,none,
1035,243,1036,r,,none,
1036,243,1037,r,,none,
1037,243,1038,r,,none,
0,211,1,r,l,none,
1,211,2,r,r,r,314.0
2,211,3,l,l,l,434.0
3,211,4,r,l,r,194.0
4,211,5,l,r,l,298.0
5,211,6,l,r,l,318.0
6,211,7,r,l,r,146.0
7,211,8,l,l,l,312.0
8,211,9,r,r,l,290.0
9,211,10,r,r,r,212.0
10,211,11,l,l,l,266.0
11,211,12,l,r,r,364.0
12,211,13,l,r,l,294.0
13,211,14,l,l,r,181.0
14,211,15,r,r,r,202.0
15,211,16,r,l,l,321.0
16,211,17,l,fc,l,293.0
17,211,18,r,l,l,421.0
18,211,19,l,fc,l,269.0
19,211,20,l,fc,l,299.0
20,211,21,r,r,r,311.0
21,211,22,l,r,l,273.0
22,211,23,r,fc,r,405.0
23,211,24,r,l,r,235.0
24,211,25,l,r,r,355.0
25,211,26,l,fc,l,311.0
26,211,27,r,fc,r,261.0
27,211,28,r,r,r,261.0
28,211,29,l,l,l,289.0
29,211,30,l,fc,r,223.0
30,211,31,r,l,r,274.0
31,211,32,r,fc,r,294.0
32,211,33,r,fc,r,251.0
33,211,34,l,r,l,267.0
34,211,35,r,fc,r,281.0
35,211,36,r,l,r,251.0
36,211,37,l,l,l,287.0
37,211,38,l,fc,l,337.0
38,211,39,l,fc,l,365.0
39,211,40,r,fc,r,263.0
40,211,41,r,r,r,241.0
41,211,42,r,fc,r,239.0
42,211,43,l,l,l,286.0
43,211,44,l,l,l,273.0
44,211,45,r,fc,r,297.0
45,211,46,r,r,r,265.0
46,211,47,l,fc,l,299.0
47,211,48,l,r,l,286.0
48,211,49,r,l,r,257.0
49,211,50,l,r,r,308.0
50,211,51,l,l,l,323.0
51,211,52,r,l,r,261.0
52,211,53,l,l,l,320.0
53,211,54,r,r,r,280.0
54,211,55,l,l,l,288.0
55,211,56,r,l,r,270.0
56,211,57,l,r,r,388.0
57,211,58,l,l,l,358.0
58,211,59,l,r,r,374.0
59,211,60,l,r,l,294.0
60,211,61,r,r,r,271.0
61,211,62,r,l,l,396.0
62,211,63,l,l,l,312.0
63,211,64,r,l,r,296.0
64,211,65,l,r,r,376.0
65,211,66,r,r,r,300.0
66,211,67,l,r,r,368.0
67,211,68,r,r,r,322.0
68,211,69,r,r,r,284.0
69,211,70,l,r,r,402.0
70,211,71,l,l,l,348.0
71,211,72,l,r,r,378.0
72,211,73,l,r,r,390.0
73,211,74,l,r,r,400.0
74,211,75,l,l,r,463.0
75,211,76,r,l,l,477.0
76,211,77,r,l,l,481.0
77,211,78,l,l,none,
78,211,79,l,l,l,361.0
79,211,80,l,r,r,385.0
80,211,81,r,r,r,419.0
81,211,82,r,r,r,399.0
82,211,83,l,r,r,363.0
83,211,84,r,r,r,318.0
84,211,85,r,r,r,457.0
85,211,86,r,l,l,445.0
86,211,87,r,l,l,439.0
87,211,88,r,r,r,451.0
88,211,89,l,r,r,393.0
89,211,90,l,l,l,374.0
90,211,91,r,l,l,422.0
91,211,92,l,l,l,356.0
92,211,93,r,r,r,331.0
93,211,94,l,l,l,415.0
94,211,95,l,r,r,407.0
95,211,96,r,l,l,433.0
96,211,97,r,r,r,377.0
97,211,98,r,l,l,437.0
98,211,99,l,l,l,537.0
99,211,100,r,r,r,329.0
100,211,101,r,r,r,375.0
101,211,102,l,r,r,411.0
102,211,103,l,l,l,359.0
103,211,104,r,r,r,355.0
104,211,105,r,l,l,423.0
105,211,106,l,l,l,397.0
106,211,107,r,l,l,441.0
107,211,108,r,l,l,428.0
108,211,109,r,fc,r,355.0
109,211,110,r,fc,l,467.0
110,211,111,l,fc,l,541.0
111,211,112,r,fc,r,501.0
112,211,113,r,l,l,437.0
113,211,114,l,l,l,345.0
114,211,115,l,fc,l,431.0
115,211,116,r,r,r,341.0
116,211,117,l,fc,l,389.0
117,211,118,l,fc,l,443.0
118,211,119,r,fc,l,453.0
119,211,120,r,fc,r,313.0
120,211,121,l,l,l,517.0
121,211,122,l,l,l,369.0
122,211,123,l,r,r,391.0
123,211,124,l,l,l,401.0
124,211,125,l,l,l,344.0
125,211,126,l,fc,l,318.0
126,211,127,l,fc,l,374.0
127,211,128,r,r,r,523.0
128,211,129,l,l,l,498.0
129,211,130,r,l,l,486.0
130,211,131,r,r,r,364.0
131,211,132,r,fc,r,362.0
132,211,133,l,l,r,414.0
133,211,134,l,r,r,389.0
134,211,135,r,r,r,319.0
135,211,136,l,fc,l,323.0
136,211,137,l,fc,l,361.0
137,211,138,r,fc,r,321.0
138,211,139,r,l,l,409.0
139,211,140,r,fc,r,311.0
140,211,141,r,r,r,333.0
141,211,142,l,l,l,529.0
142,211,143,l,r,r,387.0
143,211,144,l,fc,l,325.0
144,211,145,r,fc,r,347.0
145,211,146,r,r,r,353.0
146,211,147,r,l,l,445.0
147,211,148,l,fc,l,411.0
148,211,149,l,r,r,416.0
149,211,150,r,fc,r,308.0
150,211,151,l,fc,l,490.0
151,211,152,r,r,r,301.0
152,211,153,l,l,l,352.0
153,211,154,l,fc,l,314.0
154,211,155,l,r,r,410.0
155,211,156,r,l,r,284.0
156,211,157,l,fc,l,482.0
157,211,158,l,r,r,400.0
158,211,159,l,r,r,408.0
159,211,160,r,l,l,418.0
160,211,161,r,fc,r,302.0
161,211,162,r,fc,r,328.0
162,211,163,r,r,r,322.0
163,211,164,r,r,r,290.0
164,211,165,r,l,r,324.0
165,211,166,l,r,r,386.0
166,211,167,r,r,r,308.0
167,211,168,l,l,l,326.0
168,211,169,r,l,r,324.0
169,211,170,l,fc,l,318.0
170,211,171,l,r,r,366.0
171,211,172,l,fc,l,272.0
172,211,173,l,fc,l,333.0
173,211,174,l,fc,l,337.0
174,211,175,r,fc,r,301.0
175,211,176,l,l,l,346.0
176,211,177,r,l,r,295.0
177,211,178,l,fc,l,319.0
178,211,179,l,r,r,375.0
179,211,180,r,fc,r,299.0
180,211,181,r,r,r,287.0
181,211,182,l,fc,l,377.0
182,211,183,l,l,l,349.0
183,211,184,r,fc,r,270.0
184,211,185,r,r,r,308.0
185,211,186,l,r,r,397.0
186,211,187,l,l,l,326.0
187,211,188,r,fc,r,316.0
188,211,189,l,fc,l,332.0
189,211,190,l,r,r,380.0
190,211,191,l,fc,l,328.0
191,211,192,l,fc,l,446.0
192,211,193,r,r,r,360.0
193,211,194,l,fc,l,308.0
194,211,195,r,fc,r,314.0
195,211,196,l,l,l,286.0
196,211,197,r,r,r,280.0
197,211,198,r,r,r,343.0
198,211,199,r,l,l,417.0
199,211,200,l,r,r,369.0
200,211,201,r,fc,r,352.0
201,211,202,r,l,l,409.0
202,211,203,r,l,r,327.0
203,211,204,r,fc,r,333.0
204,211,205,r,fc,r,349.0
205,211,206,l,fc,l,323.0
206,211,207,l,fc,l,377.0
207,211,208,r,fc,r,345.0
208,211,209,r,fc,r,359.0
209,211,210,l,r,r,403.0
210,211,211,l,fc,l,341.0
211,211,212,l,fc,l,353.0
212,211,213,r,fc,r,317.0
213,211,214,r,fc,r,289.0
214,211,215,l,l,l,323.0
215,211,216,r,fc,r,313.0
216,211,217,r,r,r,297.0
217,211,218,r,l,l,397.0
218,211,219,r,l,l,437.0
219,211,220,r,fc,r,317.0
220,211,221,r,fc,r,325.0
221,211,222,l,fc,l,351.0
222,211,223,r,fc,r,344.0
223,211,224,l,fc,l,310.0
224,211,225,l,r,r,400.0
225,211,226,r,fc,r,316.0
226,211,227,l,r,l,308.0
227,211,228,r,fc,r,350.0
228,211,229,r,fc,r,328.0
229,211,230,r,fc,r,326.0
230,211,231,l,l,l,356.0
231,211,232,r,l,r,308.0
232,211,233,l,r,r,366.0
233,211,234,l,fc,r,432.0
234,211,235,r,l,l,419.0
235,211,236,l,fc,l,359.0
236,211,237,l,fc,l,407.0
237,211,238,r,fc,r,373.0
238,211,239,l,l,l,328.0
239,211,240,r,l,r,290.0
240,211,241,l,fc,l,338.0
241,211,242,l,r,r,390.0
242,211,243,l,l,l,308.0
243,211,244,l,fc,l,310.0
244,211,245,r,fc,r,344.0
245,211,246,r,fc,r,310.0
246,211,247,l,l,l,328.0
247,211,248,r,fc,r,318.0
248,211,249,r,fc,r,290.0
249,211,250,r,r,r,296.0
250,211,251,r,fc,r,320.0
251,211,252,r,l,l,404.0
252,211,253,r,r,r,330.0
253,211,254,r,l,r,280.0
254,211,255,r,fc,r,375.0
255,211,256,r,fc,r,315.0
256,211,257,l,l,l,323.0
257,211,258,r,r,r,297.0
258,211,259,l,fc,l,305.0
259,211,260,l,l,l,303.0
260,211,261,r,l,l,417.0
261,211,262,l,fc,l,321.0
262,211,263,l,fc,l,305.0
263,211,264,r,fc,r,343.0
264,211,265,r,fc,r,365.0
265,211,266,r,fc,r,352.0
266,211,267,l,fc,l,305.0
267,211,268,l,r,r,403.0
268,211,269,l,fc,l,285.0
269,211,270,r,r,r,287.0
270,211,271,r,l,l,401.0
271,211,272,r,l,r,321.0
272,211,273,l,r,r,407.0
273,211,274,l,l,l,317.0
274,211,275,l,fc,l,305.0
275,211,276,l,fc,l,299.0
276,211,277,r,fc,r,298.0
277,211,278,r,fc,r,322.0
278,211,279,r,fc,r,304.0
279,211,280,l,fc,r,442.0
280,211,281,r,fc,r,352.0
281,211,282,l,fc,l,449.0
282,211,283,l,fc,l,515.0
283,211,284,r,fc,r,491.0
284,211,285,r,l,r,321.0
285,211,286,r,r,r,371.0
286,211,287,r,fc,r,321.0
287,211,288,l,l,l,313.0
288,211,289,l,fc,l,301.0
289,211,290,r,fc,r,326.0
290,211,291,r,r,r,315.0
291,211,292,l,l,l,351.0
292,211,293,l,fc,l,325.0
293,211,294,r,fc,r,355.0
294,211,295,l,fc,l,335.0
295,211,296,r,l,l,427.0
296,211,297,l,fc,l,353.0
297,211,298,r,r,r,309.0
298,211,299,r,l,l,427.0
299,211,300,r,fc,r,325.0
300,211,301,r,r,r,346.0
301,211,302,r,fc,r,284.0
302,211,303,l,l,l,314.0
303,211,304,r,l,l,414.0
304,211,305,l,r,r,378.0
305,211,306,l,fc,l,302.0
306,211,307,r,fc,r,336.0
307,211,308,r,fc,r,328.0
308,211,309,r,l,l,410.0
309,211,310,l,fc,none,
310,211,311,r,l,l,436.0
311,211,312,r,r,r,328.0
312,211,313,l,r,r,406.0
313,211,314,l,fc,l,332.0
314,211,315,r,fc,r,296.0
315,211,316,l,l,l,349.0
316,211,317,l,r,r,386.0
317,211,318,l,fc,l,336.0
318,211,319,l,fc,l,328.0
319,211,320,l,fc,l,290.0
320,211,321,l,r,r,392.0
321,211,322,l,l,l,326.0
322,211,323,l,r,r,396.0
323,211,324,l,fc,l,312.0
324,211,325,l,fc,l,358.0
325,211,326,l,r,r,370.0
326,211,327,r,fc,r,360.0
327,211,328,r,fc,r,327.0
328,211,329,l,l,l,365.0
329,211,330,r,r,r,314.0
330,211,331,l,r,r,402.0
331,211,332,l,fc,l,336.0
332,211,333,l,fc,l,356.0
333,211,334,l,fc,l,376.0
334,211,335,r,fc,r,304.0
335,211,336,l,l,l,394.0
336,211,337,r,r,r,342.0
337,211,338,r,fc,r,324.0
338,211,339,l,r,l,322.0
339,211,340,r,l,l,424.0
340,211,341,r,r,r,347.0
341,211,342,r,r,r,316.0
342,211,343,r,fc,r,424.0
343,211,344,l,l,l,366.0
344,211,345,l,r,r,424.0
345,211,346,r,fc,r,322.0
346,211,347,r,fc,r,360.0
347,211,348,r,r,r,316.0
348,211,349,r,fc,r,352.0
349,211,350,l,l,l,338.0
350,211,351,l,r,r,390.0
351,211,352,l,fc,l,384.0
352,211,353,l,fc,l,350.0
353,211,354,r,r,r,348.0
354,211,355,l,l,l,318.0
355,211,356,l,fc,l,362.0
356,211,357,l,r,r,414.0
357,211,358,r,r,r,366.0
358,211,359,l,fc,l,363.0
359,211,360,r,l,r,326.0
360,211,361,l,fc,l,328.0
361,211,362,l,r,r,398.0
362,211,363,l,fc,r,437.0
363,211,364,r,l,l,421.0
364,211,365,r,l,l,438.0
365,211,366,l,r,r,401.0
366,211,367,r,l,l,403.0
367,211,368,r,fc,r,309.0
368,211,369,r,fc,r,308.0
369,211,370,r,fc,r,318.0
370,211,371,l,fc,l,346.0
371,211,372,r,l,l,408.0
372,211,373,l,r,r,370.0
373,211,374,l,l,l,311.0
374,211,375,l,r,r,393.0
375,211,376,l,l,l,326.0
376,211,377,l,fc,l,311.0
377,211,378,l,l,l,329.0
378,211,379,l,r,r,347.0
379,211,380,r,r,r,293.0
380,211,381,l,fc,l,349.0
381,211,382,l,fc,l,479.0
382,211,383,l,l,l,323.0
383,211,384,r,fc,r,289.0
384,211,385,r,fc,r,347.0
385,211,386,r,l,l,397.0
386,211,387,r,fc,r,401.0
387,211,388,l,fc,l,343.0
388,211,389,r,r,r,329.0
389,211,390,l,fc,l,291.0
390,211,391,l,l,l,337.0
391,211,392,r,fc,r,381.0
392,211,393,r,fc,r,341.0
393,211,394,l,l,l,321.0
394,211,395,l,r,r,385.0
395,211,396,r,fc,r,327.0
396,211,397,r,l,l,413.0
397,211,398,r,r,r,329.0
398,211,399,l,l,l,330.0
399,211,400,l,fc,l,352.0
400,211,401,r,fc,r,539.0
401,211,402,l,l,l,334.0
402,211,403,l,r,r,422.0
403,211,404,l,fc,l,332.0
404,211,405,l,fc,l,430.0
405,211,406,r,l,l,428.0
406,211,407,l,fc,l,390.0
407,211,408,r,fc,r,368.0
408,211,409,r,fc,r,322.0
409,211,410,r,r,r,350.0
410,211,411,r,l,l,408.0
411,211,412,r,fc,r,342.0
412,211,413,r,r,r,346.0
413,211,414,r,l,l,404.0
414,211,415,r,fc,r,414.0
415,211,416,l,fc,l,426.0
416,211,417,l,fc,l,491.0
417,211,418,l,l,l,385.0
418,211,419,r,fc,r,371.0
419,211,420,l,r,r,421.0
420,211,421,l,l,l,329.0
421,211,422,l,fc,l,339.0
422,211,423,r,r,r,383.0
423,211,424,l,fc,l,332.0
424,211,425,r,fc,r,352.0
425,211,426,r,fc,r,377.0
426,211,427,r,fc,r,324.0
427,211,428,l,l,l,490.0
428,211,429,r,l,l,444.0
429,211,430,l,r,r,442.0
430,211,431,l,r,r,428.0
431,211,432,r,fc,r,366.0
432,211,433,r,l,l,404.0
433,211,434,r,fc,r,338.0
434,211,435,l,r,r,430.0
435,211,436,r,r,r,360.0
436,211,437,l,l,l,355.0
437,211,438,r,fc,r,332.0
438,211,439,l,r,r,402.0
439,211,440,r,fc,r,348.0
440,211,441,r,fc,r,446.0
441,211,442,l,r,r,404.0
442,211,443,r,fc,r,410.0
443,211,444,r,l,l,428.0
444,211,445,r,r,r,350.0
445,211,446,l,fc,l,512.0
446,211,447,l,fc,l,386.0
447,211,448,l,fc,l,395.0
448,211,449,l,fc,l,335.0
449,211,450,l,r,r,427.0
450,211,451,l,fc,l,346.0
451,211,452,r,fc,r,331.0
452,211,453,r,l,l,433.0
453,211,454,l,fc,l,497.0
454,211,455,r,fc,r,317.0
455,211,456,r,r,r,337.0
456,211,457,l,l,l,317.0
457,211,458,r,r,r,325.0
458,211,459,l,fc,l,299.0
459,211,460,r,r,r,387.0
460,211,461,l,fc,l,565.0
461,211,462,r,l,l,451.0
462,211,463,l,fc,l,493.0
463,211,464,l,r,r,405.0
464,211,465,l,fc,r,403.0
465,211,466,l,r,r,376.0
466,211,467,r,l,l,388.0
467,211,468,l,r,r,366.0
468,211,469,r,l,l,404.0
469,211,470,r,l,l,430.0
470,211,471,r,fc,r,584.0
471,211,472,l,fc,l,541.0
472,211,473,r,fc,r,569.0
473,211,474,r,fc,r,491.0
474,211,475,l,fc,r,549.0
475,211,476,r,fc,l,507.0
476,211,477,l,fc,l,521.0
477,211,478,r,r,l,432.0
478,211,479,r,r,r,345.0
479,211,480,r,fc,r,763.0
480,211,481,r,fc,r,333.0
481,211,482,l,fc,l,397.0
482,211,483,l,l,l,477.0
483,211,484,r,r,r,397.0
484,211,485,r,fc,r,321.0
485,211,486,l,r,r,393.0
486,211,487,l,l,l,317.0
487,211,488,l,fc,l,401.0
488,211,489,l,l,l,493.0
489,211,490,r,r,r,445.0
490,211,491,r,l,l,407.0
491,211,492,r,l,l,457.0
492,211,493,l,fc,l,465.0
493,211,494,l,fc,r,611.0
494,211,495,l,fc,l,476.0
495,211,496,r,r,r,516.0
496,211,497,r,fc,r,472.0
497,211,498,r,r,r,465.0
498,211,499,l,fc,l,364.0
499,211,500,r,fc,r,402.0
500,211,501,l,fc,r,416.0
501,211,502,r,l,l,431.0
502,211,503,r,fc,r,517.0
503,211,504,l,fc,r,497.0
504,211,505,r,r,r,449.0
505,211,506,r,r,r,363.0
506,211,507,r,l,l,412.0
507,211,508,l,fc,l,412.0
508,211,509,l,r,r,417.0
509,211,510,l,l,l,388.0
510,211,511,r,fc,r,354.0
511,211,512,l,r,r,418.0
512,211,513,l,r,r,454.0
513,211,514,l,fc,l,462.0
514,211,515,l,l,l,380.0
515,211,516,l,fc,l,524.0
516,211,517,r,r,r,450.0
517,211,518,r,fc,l,612.0
518,211,519,r,fc,l,556.0
519,211,520,r,fc,r,512.0
520,211,521,l,l,l,418.0
521,211,522,r,fc,r,550.0
522,211,523,r,fc,r,500.0
523,211,524,r,fc,l,460.0
524,211,525,r,fc,l,528.0
525,211,526,r,fc,r,506.0
526,211,527,r,l,l,412.0
527,211,528,l,r,r,416.0
528,211,529,r,fc,r,564.0
529,211,530,l,l,l,489.0
530,211,531,l,l,l,399.0
531,211,532,l,fc,l,547.0
532,211,533,l,fc,r,538.0
533,211,534,l,fc,r,533.0
534,211,535,l,r,r,525.0
535,211,536,r,l,l,415.0
536,211,537,l,fc,r,555.0
537,211,538,r,fc,l,499.0
538,211,539,l,l,l,507.0
539,211,540,l,fc,l,493.0
540,211,541,r,fc,l,541.0
541,211,542,r,r,r,397.0
542,211,543,l,r,r,517.0
543,211,544,r,fc,r,613.0
544,211,545,r,l,l,388.0
545,211,546,l,fc,l,519.0
546,211,547,l,r,r,423.0
547,211,548,l,l,l,353.0
548,211,549,r,fc,r,459.0
549,211,550,r,l,l,430.0
550,211,551,l,fc,l,552.0
551,211,552,r,r,r,484.0
552,211,553,r,r,r,382.0
553,211,554,l,fc,l,581.0
554,211,555,r,fc,r,363.0
555,211,556,l,fc,l,586.0
556,211,557,r,l,l,415.0
557,211,558,l,fc,l,531.0
558,211,559,l,r,r,433.0
559,211,560,r,r,r,377.0
560,211,561,r,fc,r,505.0
561,211,562,r,fc,l,527.0
562,211,563,l,fc,l,409.0
563,211,564,r,fc,l,523.0
564,211,565,r,fc,l,445.0
565,211,566,r,fc,r,427.0
566,211,567,r,l,l,445.0
567,211,568,r,fc,r,459.0
568,211,569,r,fc,l,387.0
569,211,570,l,l,l,505.0
570,211,571,r,fc,r,519.0
571,211,572,l,fc,r,491.0
572,211,573,l,fc,l,417.0
573,211,574,l,r,l,493.0
574,211,575,l,fc,r,473.0
575,211,576,r,l,l,420.0
576,211,577,l,r,r,412.0
577,211,578,r,r,r,440.0
578,211,579,l,l,l,344.0
579,211,580,r,fc,r,446.0
580,211,581,r,r,r,420.0
581,211,582,l,r,r,428.0
582,211,583,r,l,l,402.0
583,211,584,r,l,l,444.0
584,211,585,r,r,r,350.0
585,211,586,l,l,l,376.0
586,211,587,l,fc,r,636.0
587,211,588,r,fc,r,512.0
588,211,589,r,fc,l,470.0
589,211,590,r,l,l,444.0
590,211,591,l,r,r,398.0
591,211,592,l,l,l,418.0
592,211,593,l,fc,r,558.0
593,211,594,l,fc,r,566.0
594,211,595,l,fc,l,452.0
595,211,596,l,l,l,466.0
596,211,597,l,fc,l,603.0
597,211,598,r,fc,l,465.0
598,211,599,r,r,r,378.0
599,211,600,l,l,l,386.0
600,211,601,r,l,l,428.0
601,211,602,l,fc,l,410.0
602,211,603,l,fc,l,516.0
603,211,604,r,r,r,440.0
604,211,605,r,r,r,424.0
605,211,606,l,fc,l,322.0
606,211,607,l,l,r,436.0
607,211,608,r,fc,r,340.0
608,211,609,l,r,r,408.0
609,211,610,r,r,r,402.0
610,211,611,l,l,l,368.0
611,211,612,l,fc,r,518.0
612,211,613,l,fc,r,466.0
613,211,614,r,l,l,452.0
614,211,615,l,r,r,420.0
615,211,616,l,r,r,432.0
616,211,617,l,l,l,376.0
617,211,618,r,r,r,364.0
618,211,619,l,l,l,334.0
619,211,620,r,fc,r,314.0
620,211,621,r,fc,r,486.0
621,211,622,r,r,r,352.0
622,211,623,l,fc,l,477.0
623,211,624,l,fc,l,497.0
624,211,625,l,fc,r,474.0
625,211,626,l,r,r,553.0
626,211,627,r,l,l,417.0
627,211,628,r,l,l,441.0
628,211,629,n,fc,r,489.0
629,211,630,n,r,r,471.0
630,211,631,n,fc,l,585.0
631,211,632,n,l,l,463.0
632,211,633,n,fc,r,433.0
633,211,634,n,fc,l,393.0
634,211,635,n,l,l,485.0
635,211,636,n,fc,l,443.0
636,211,637,n,fc,r,465.0
637,211,638,n,r,r,419.0
638,211,639,n,fc,r,525.0
639,211,640,n,fc,r,659.0
640,211,641,n,fc,l,415.0
641,211,642,n,l,l,471.0
642,211,643,n,l,l,409.0
643,211,644,n,r,r,367.0
644,211,645,n,l,l,393.0
645,211,646,n,fc,none,
646,211,647,n,r,r,389.0
647,211,648,n,fc,r,491.0
648,211,649,n,l,l,361.0
649,211,650,n,r,r,401.0
650,211,651,n,l,l,327.0
651,211,652,n,fc,r,461.0
652,211,653,n,r,r,385.0
653,211,654,n,r,r,399.0
654,211,655,n,fc,none,
655,211,656,n,fc,r,347.0
656,211,657,n,fc,r,393.0
657,211,658,n,fc,l,289.0
658,211,659,n,l,l,247.0
659,211,660,n,r,r,381.0
660,211,661,n,l,l,381.0
661,211,662,n,fc,r,468.0
662,211,663,n,fc,r,338.0
663,211,664,n,fc,r,342.0
664,211,665,n,r,l,312.0
665,211,666,n,fc,r,416.0
666,211,667,n,fc,l,316.0
667,211,668,n,l,l,368.0
668,211,669,n,r,r,366.0
669,211,670,n,fc,r,416.0
670,211,671,n,fc,r,336.0
671,211,672,n,fc,l,436.0
672,211,673,n,l,l,324.0
673,211,674,n,r,r,338.0
674,211,675,n,l,l,378.0
675,211,676,n,r,r,338.0
676,211,677,n,fc,r,454.0
677,211,678,n,fc,r,442.0
678,211,679,n,fc,l,436.0
679,211,680,n,r,r,444.0
680,211,681,n,l,l,334.0
681,211,682,n,fc,l,406.0
682,211,683,n,r,r,372.0
683,211,684,n,fc,r,462.0
684,211,685,n,r,r,390.0
685,211,686,n,l,l,386.0
686,211,687,n,l,l,388.0
687,211,688,n,fc,r,438.0
688,211,689,n,fc,r,442.0
689,211,690,n,r,r,384.0
690,211,691,n,l,l,342.0
691,211,692,n,l,l,380.0
692,211,693,n,r,r,376.0
693,211,694,n,l,l,328.0
694,211,695,n,fc,l,646.0
695,211,696,n,fc,r,436.0
696,211,697,n,fc,r,460.0
697,211,698,n,l,l,400.0
698,211,699,n,fc,r,420.0
699,211,700,n,fc,r,412.0
700,211,701,n,fc,l,380.0
701,211,702,n,r,r,420.0
702,211,703,n,l,l,420.0
703,211,704,n,fc,l,460.0
704,211,705,n,l,l,384.0
705,211,706,n,r,r,405.0
706,211,707,n,r,r,371.0
707,211,708,n,l,l,374.0
708,211,709,n,r,r,350.0
709,211,710,n,fc,r,488.0
710,211,711,n,fc,l,537.0
711,211,712,n,fc,l,421.0
712,211,713,n,r,r,376.0
713,211,714,n,fc,l,519.0
714,211,715,n,fc,l,631.0
715,211,716,n,l,l,417.0
716,211,717,n,r,r,381.0
717,211,718,n,fc,r,437.0
718,211,719,n,r,r,401.0
719,211,720,n,fc,l,431.0
720,211,721,n,l,l,425.0
721,211,722,n,l,l,399.0
722,211,723,n,r,r,331.0
723,211,724,n,fc,r,401.0
724,211,725,n,fc,r,417.0
725,211,726,n,r,r,345.0
726,211,727,n,l,l,331.0
727,211,728,n,r,r,345.0
728,211,729,n,l,l,307.0
729,211,730,n,fc,l,593.0
730,211,731,n,fc,r,393.0
731,211,732,n,fc,r,397.0
732,211,733,n,l,l,365.0
733,211,734,n,r,r,358.0
734,211,735,n,fc,r,409.0
735,211,736,n,fc,l,459.0
736,211,737,n,fc,r,396.0
737,211,738,n,l,l,443.0
738,211,739,n,fc,l,453.0
739,211,740,n,l,l,385.0
740,211,741,n,fc,l,375.0
741,211,742,n,r,r,359.0
742,211,743,n,fc,r,367.0
743,211,744,n,fc,r,445.0
744,211,745,n,fc,r,423.0
745,211,746,n,fc,l,365.0
746,211,747,n,r,r,435.0
747,211,748,n,fc,l,431.0
748,211,749,n,fc,r,366.0
749,211,750,n,r,r,452.0
750,211,751,n,fc,l,461.0
751,211,752,n,r,r,424.0
752,211,753,n,l,l,398.0
753,211,754,n,r,r,346.0
754,211,755,n,r,r,340.0
755,211,756,n,l,l,344.0
756,211,757,n,fc,r,350.0
757,211,758,n,r,r,360.0
758,211,759,n,r,r,360.0
759,211,760,n,l,l,348.0
760,211,761,n,l,l,386.0
761,211,762,n,fc,r,352.0
762,211,763,n,fc,l,526.0
763,211,764,n,fc,l,452.0
764,211,765,n,fc,l,418.0
765,211,766,n,r,r,338.0
766,211,767,n,fc,l,522.0
767,211,768,n,fc,r,350.0
768,211,769,n,fc,r,384.0
769,211,770,n,fc,r,374.0
770,211,771,n,fc,r,398.0
771,211,772,n,l,l,353.0
772,211,773,n,l,l,433.0
773,211,774,n,fc,r,317.0
774,211,775,n,fc,r,352.0
775,211,776,n,fc,l,272.0
776,211,777,n,r,r,440.0
777,211,778,n,fc,r,440.0
778,211,779,n,l,l,416.0
779,211,780,n,fc,l,428.0
780,211,781,n,fc,l,454.0
781,211,782,n,l,l,422.0
782,211,783,n,fc,r,496.0
783,211,784,n,r,r,368.0
784,211,785,n,r,r,394.0
785,211,786,n,fc,r,422.0
786,211,787,n,l,l,363.0
787,211,788,n,l,l,346.0
788,211,789,n,fc,l,452.0
789,211,790,n,r,r,416.0
790,211,791,n,l,l,332.0
791,211,792,n,l,l,402.0
792,211,793,n,r,r,348.0
793,211,794,n,fc,r,374.0
794,211,795,n,fc,l,422.0
795,211,796,n,fc,l,399.0
796,211,797,n,l,l,375.0
797,211,798,n,fc,l,415.0
798,211,799,n,l,l,404.0
799,211,800,n,r,r,381.0
800,211,801,n,fc,r,481.0
801,211,802,n,l,l,481.0
802,211,803,n,r,r,345.0
803,211,804,n,fc,l,439.0
804,211,805,n,fc,r,403.0
805,211,806,n,fc,r,429.0
806,211,807,n,fc,l,343.0
807,211,808,n,fc,l,317.0
808,211,809,n,fc,l,445.0
809,211,810,n,fc,r,387.0
810,211,811,n,fc,r,437.0
811,211,812,n,l,l,425.0
812,211,813,n,fc,r,563.0
813,211,814,n,l,l,381.0
814,211,815,n,fc,r,513.0
815,211,816,n,r,r,365.0
816,211,817,n,fc,r,459.0
817,211,818,n,l,l,343.0
818,211,819,n,fc,l,385.0
819,211,820,n,r,r,391.0
820,211,821,n,r,r,405.0
821,211,822,n,l,l,374.0
822,211,823,n,fc,r,378.0
823,211,824,n,r,r,366.0
824,211,825,n,fc,r,427.0
825,211,826,n,fc,r,357.0
826,211,827,n,l,l,317.0
827,211,828,n,r,r,345.0
828,211,829,n,l,l,327.0
829,211,830,n,r,r,381.0
830,211,831,n,r,r,401.0
831,211,832,n,l,l,359.0
832,211,833,n,r,r,367.0
833,211,834,n,fc,l,489.0
834,211,835,n,fc,l,443.0
835,211,836,n,fc,r,397.0
836,211,837,n,r,r,365.0
837,211,838,n,fc,l,343.0
838,211,839,n,l,l,309.0
839,211,840,n,fc,l,367.0
840,211,841,n,fc,l,385.0
841,211,842,n,fc,r,435.0
842,211,843,n,fc,r,399.0
843,211,844,n,r,r,375.0
844,211,845,n,fc,r,455.0
845,211,846,n,l,l,334.0
846,211,847,n,fc,l,414.0
847,211,848,n,fc,r,343.0
848,211,849,n,r,r,388.0
849,211,850,n,r,r,394.0
850,211,851,n,fc,r,382.0
851,211,852,n,l,l,322.0
852,211,853,n,r,r,360.0
853,211,854,n,fc,l,524.0
854,211,855,n,l,l,330.0
855,211,856,n,l,l,400.0
856,211,857,n,r,r,340.0
857,211,858,n,fc,l,344.0
858,211,859,n,fc,r,370.0
859,211,860,n,l,l,388.0
860,211,861,n,l,l,326.0
861,211,862,n,fc,r,380.0
862,211,863,n,fc,l,396.0
863,211,864,n,r,r,408.0
864,211,865,n,fc,l,394.0
865,211,866,n,fc,l,370.0
866,211,867,n,r,r,380.0
867,211,868,n,l,l,440.0
868,211,869,n,l,l,320.0
869,211,870,n,l,l,360.0
870,211,871,n,r,r,372.0
871,211,872,n,fc,r,342.0
872,211,873,n,fc,r,384.0
873,211,874,n,l,l,290.0
874,211,875,n,fc,l,384.0
875,211,876,n,fc,r,362.0
876,211,877,n,fc,l,394.0
877,211,878,n,fc,l,422.0
878,211,879,n,r,r,360.0
879,211,880,n,r,r,372.0
880,211,881,n,fc,l,346.0
881,211,882,n,l,l,332.0
882,211,883,n,fc,l,417.0
883,211,884,n,r,r,353.0
884,211,885,n,fc,l,369.0
885,211,886,n,fc,r,332.0
886,211,887,n,fc,r,389.0
887,211,888,n,fc,r,411.0
888,211,889,n,l,l,215.0
889,211,890,n,fc,r,331.0
890,211,891,n,fc,r,345.0
891,211,892,n,fc,l,299.0
892,211,893,n,r,r,395.0
893,211,894,n,fc,l,371.0
894,211,895,n,l,l,377.0
895,211,896,n,r,r,369.0
896,211,897,n,r,r,395.0
897,211,898,n,l,l,343.0
898,211,899,n,fc,r,377.0
899,211,900,n,r,r,421.0
900,211,901,n,r,r,317.0
901,211,902,n,l,l,321.0
902,211,903,n,fc,r,313.0
903,211,904,n,fc,l,325.0
904,211,905,n,fc,r,367.0
905,211,906,n,fc,r,357.0
906,211,907,n,r,r,381.0
907,211,908,n,r,r,360.0
908,211,909,n,l,l,412.0
909,211,910,n,fc,l,420.0
910,211,911,n,fc,r,416.0
911,211,912,n,l,l,372.0
912,211,913,n,r,r,325.0
913,211,914,n,fc,l,371.0
914,211,915,n,l,r,305.0
915,211,916,n,fc,r,363.0
916,211,917,n,fc,r,469.0
917,211,918,n,fc,l,399.0
918,211,919,n,l,l,387.0
919,211,920,n,fc,r,449.0
920,211,921,n,r,l,315.0
921,211,922,n,fc,l,351.0
922,211,923,n,fc,l,377.0
923,211,924,n,l,l,397.0
924,211,925,n,r,r,341.0
925,211,926,n,r,r,396.0
926,211,927,n,l,l,320.0
927,211,928,n,r,r,313.0
928,211,929,n,fc,r,445.0
929,211,930,n,r,r,395.0
930,211,931,n,l,l,350.0
931,211,932,n,r,r,332.0
932,211,933,n,fc,r,432.0
933,211,934,n,fc,r,404.0
934,211,935,n,fc,l,394.0
935,211,936,n,fc,l,434.0
936,211,937,n,fc,l,438.0
937,211,938,n,l,l,382.0
938,211,939,n,l,l,418.0
939,211,940,n,r,r,370.0
940,211,941,n,fc,l,372.0
941,211,942,n,fc,l,406.0
942,211,943,n,l,l,440.0
943,211,944,n,fc,r,476.0
944,211,945,n,fc,r,408.0
945,211,946,n,l,l,398.0
946,211,947,n,fc,l,418.0
947,211,948,n,fc,l,406.0
948,211,949,n,r,r,328.0
949,211,950,n,fc,r,390.0
950,211,951,n,l,l,380.0
951,211,952,n,r,r,312.0
952,211,953,n,fc,r,362.0
953,211,954,n,fc,r,342.0
954,211,955,n,r,l,262.0
955,211,956,n,l,l,389.0
956,211,957,n,r,r,408.0
957,211,958,n,l,l,349.0
958,211,959,n,fc,r,455.0
959,211,960,n,l,l,359.0
960,211,961,n,fc,r,398.0
961,211,962,n,fc,r,414.0
962,211,963,n,r,r,366.0
963,211,964,n,r,r,352.0
964,211,965,n,fc,l,380.0
965,211,966,n,l,r,316.0
966,211,967,n,fc,r,424.0
967,211,968,n,fc,r,390.0
968,211,969,n,l,l,328.0
969,211,970,n,r,r,326.0
970,211,971,n,fc,l,404.0
971,211,972,n,l,l,382.0
972,211,973,n,fc,r,382.0
973,211,974,n,fc,l,358.0
974,211,975,n,r,r,314.0
975,211,976,n,fc,l,310.0
976,211,977,n,fc,l,360.0
977,211,978,n,l,l,295.0
978,211,979,n,fc,l,415.0
979,211,980,n,fc,r,431.0
980,211,981,n,fc,r,396.0
981,211,982,n,r,r,443.0
982,211,983,n,r,r,345.0
983,211,984,n,l,l,343.0
984,211,985,n,r,r,357.0
985,211,986,n,l,l,361.0
986,211,987,n,fc,r,421.0
987,211,988,n,l,l,325.0
988,211,989,r,,none,
989,211,990,r,,none,
990,211,991,r,,none,
991,211,992,l,,none,
992,211,993,l,,none,
993,211,994,l,,none,
994,211,995,r,,none,
995,211,996,l,,none,
996,211,997,l,,none,
997,211,998,l,,none,
998,211,999,l,,none,
999,211,1000,l,,none,
1000,211,1001,r,,none,
1001,211,1002,r,,none,
1002,211,1003,r,,none,
1003,211,1004,l,,none,
1004,211,1005,l,,none,
1005,211,1006,l,,none,
1006,211,1007,l,,none,
1007,211,1008,r,,none,
1008,211,1009,r,,none,
1009,211,1010,r,,none,
1010,211,1011,l,,none,
1011,211,1012,l,,none,
1012,211,1013,r,,none,
1013,211,1014,r,,none,
1014,211,1015,l,,none,
1015,211,1016,l,,none,
1016,211,1017,r,,none,
1017,211,1018,r,,none,
1018,211,1019,r,,none,
1019,211,1020,l,,none,
1020,211,1021,l,,none,
1021,211,1022,l,,none,
1022,211,1023,r,,none,
1023,211,1024,r,,none,
1024,211,1025,r,,none,
1025,211,1026,l,,none,
1026,211,1027,r,,none,
1027,211,1028,r,,none,
1028,211,1029,l,,none,
1029,211,1030,r,,none,
1030,211,1031,l,,none,
1031,211,1032,r,,none,
1032,211,1033,r,,none,
1033,211,1034,r,,none,
1034,211,1035,l,,none,
1035,211,1036,r,,none,
1036,211,1037,l,,none,
1037,211,1038,l,,none,
0,212,1,r,l,l,513.0
1,212,2,r,r,r,350.0
2,212,3,r,r,r,436.0
3,212,4,r,l,l,428.0
4,212,5,l,l,l,542.0
5,212,6,l,l,l,442.0
6,212,7,l,r,r,464.0
7,212,8,l,l,l,314.0
8,212,9,l,r,r,398.0
9,212,10,r,l,l,310.0
10,212,11,r,r,r,284.0
11,212,12,r,r,r,374.0
12,212,13,l,r,r,470.0
13,212,14,r,l,l,455.0
14,212,15,l,l,l,391.0
15,212,16,l,r,l,331.0
16,212,17,l,fc,l,361.0
17,212,18,r,fc,l,657.0
18,212,19,r,r,r,317.0
19,212,20,r,l,l,437.0
20,212,21,l,fc,l,581.0
21,212,22,l,fc,l,561.0
22,212,23,r,l,r,305.0
23,212,24,l,fc,l,699.0
24,212,25,r,fc,r,287.0
25,212,26,r,fc,l,469.0
26,212,27,l,fc,r,447.0
27,212,28,l,fc,r,485.0
28,212,29,r,fc,l,471.0
29,212,30,r,r,r,373.0
30,212,31,l,fc,l,519.0
31,212,32,l,l,l,423.0
32,212,33,r,fc,r,285.0
33,212,34,l,fc,l,458.0
34,212,35,r,l,r,282.0
35,212,36,r,fc,r,496.0
36,212,37,l,r,l,245.0
37,212,38,r,r,r,413.0
38,212,39,l,l,l,405.0
39,212,40,r,fc,l,571.0
40,212,41,l,r,r,399.0
41,212,42,r,fc,l,559.0
42,212,43,l,r,r,455.0
43,212,44,l,l,l,359.0
44,212,45,r,r,r,359.0
45,212,46,r,l,l,399.0
46,212,47,l,r,r,371.0
47,212,48,l,l,l,365.0
48,212,49,l,r,r,407.0
49,212,50,r,r,r,409.0
50,212,51,r,l,l,431.0
51,212,52,r,r,r,396.0
52,212,53,l,r,r,496.0
53,212,54,r,l,l,456.0
54,212,55,l,r,r,404.0
55,212,56,r,l,l,338.0
56,212,57,r,r,r,358.0
57,212,58,l,l,l,334.0
58,212,59,l,l,l,442.0
59,212,60,r,r,r,328.0
60,212,61,l,l,l,310.0
61,212,62,l,r,l,308.0
62,212,63,r,l,l,430.0
63,212,64,r,l,l,492.0
64,212,65,r,l,l,470.0
65,212,66,l,l,l,428.0
66,212,67,l,r,l,322.0
67,212,68,l,r,r,423.0
68,212,69,l,l,l,353.0
69,212,70,r,r,r,329.0
70,212,71,l,r,l,300.0
71,212,72,l,r,r,483.0
72,212,73,l,r,r,441.0
73,212,74,r,r,r,305.0
74,212,75,r,r,r,315.0
75,212,76,l,l,l,367.0
76,212,77,r,r,r,377.0
77,212,78,l,r,r,401.0
78,212,79,l,r,l,299.0
79,212,80,r,l,l,487.0
80,212,81,l,r,r,405.0
81,212,82,r,l,l,459.0
82,212,83,l,l,l,363.0
83,212,84,r,l,l,513.0
84,212,85,r,l,l,437.0
85,212,86,l,r,r,453.0
86,212,87,l,r,r,465.0
87,212,88,r,r,r,343.0
88,212,89,r,l,l,401.0
89,212,90,r,l,r,281.0
90,212,91,r,r,r,392.0
91,212,92,l,l,l,274.0
92,212,93,l,l,l,319.0
93,212,94,r,r,r,382.0
94,212,95,r,r,r,374.0
95,212,96,l,l,l,322.0
96,212,97,l,r,r,398.0
97,212,98,r,l,l,426.0
98,212,99,r,r,r,292.0
99,212,100,l,l,l,315.0
100,212,101,r,r,r,319.0
101,212,102,r,l,r,283.0
102,212,103,l,l,l,341.0
103,212,104,l,l,l,345.0
104,212,105,r,l,l,407.0
105,212,106,l,l,l,349.0
106,212,107,l,l,l,451.0
107,212,108,r,r,r,405.0
108,212,109,l,fc,l,338.0
109,212,110,l,fc,l,398.0
110,212,111,l,l,l,494.0
111,212,112,l,r,r,498.0
112,212,113,r,l,l,406.0
113,212,114,l,r,r,436.0
114,212,115,l,r,r,444.0
115,212,116,r,fc,l,586.0
116,212,117,l,l,l,348.0
117,212,118,r,r,r,334.0
118,212,119,l,fc,l,494.0
119,212,120,l,fc,l,474.0
120,212,121,l,r,r,430.0
121,212,122,l,fc,r,532.0
122,212,123,l,l,l,394.0
123,212,124,r,r,r,325.0
124,212,125,l,l,l,367.0
125,212,126,r,fc,r,386.0
126,212,127,l,r,r,427.0
127,212,128,r,r,r,345.0
128,212,129,l,fc,r,511.0
129,212,130,r,fc,r,445.0
130,212,131,l,l,l,435.0
131,212,132,r,fc,l,359.0
132,212,133,l,fc,l,515.0
133,212,134,r,fc,r,450.0
134,212,135,l,r,r,436.0
135,212,136,l,l,l,408.0
136,212,137,r,l,l,478.0
137,212,138,r,fc,r,446.0
138,212,139,l,fc,r,460.0
139,212,140,r,fc,r,412.0
140,212,141,l,fc,l,320.0
141,212,142,l,fc,l,476.0
142,212,143,r,fc,r,440.0
143,212,144,l,fc,l,420.0
144,212,145,r,fc,r,472.0
145,212,146,l,r,r,419.0
146,212,147,r,fc,l,440.0
147,212,148,l,fc,r,423.0
148,212,149,l,l,l,541.0
149,212,150,l,l,l,374.0
150,212,151,l,r,r,461.0
151,212,152,r,fc,r,477.0
152,212,153,r,l,l,449.0
153,212,154,l,r,r,527.0
154,212,155,r,fc,l,381.0
155,212,156,r,l,l,401.0
156,212,157,r,l,l,459.0
157,212,158,l,r,r,415.0
158,212,159,l,r,r,447.0
159,212,160,r,fc,r,461.0
160,212,161,r,fc,l,453.0
161,212,162,r,fc,r,525.0
162,212,163,l,fc,l,427.0
163,212,164,l,fc,l,401.0
164,212,165,r,l,l,469.0
165,212,166,l,fc,l,463.0
166,212,167,r,fc,r,469.0
167,212,168,l,fc,r,503.0
168,212,169,l,fc,r,477.0
169,212,170,l,fc,l,533.0
170,212,171,r,l,l,458.0
171,212,172,l,fc,r,498.0
172,212,173,r,fc,l,339.0
173,212,174,r,r,r,394.0
174,212,175,r,l,l,398.0
175,212,176,r,l,l,426.0
176,212,177,r,r,r,420.0
177,212,178,r,fc,r,520.0
178,212,179,r,l,l,368.0
179,212,180,l,r,l,350.0
180,212,181,l,fc,l,428.0
181,212,182,l,l,l,401.0
182,212,183,r,fc,r,523.0
183,212,184,r,l,l,469.0
184,212,185,l,r,r,523.0
185,212,186,r,fc,l,444.0
186,212,187,r,l,l,459.0
187,212,188,l,l,l,383.0
188,212,189,r,fc,l,460.0
189,212,190,r,fc,r,385.0
190,212,191,r,r,r,351.0
191,212,192,l,fc,l,453.0
192,212,193,r,r,r,353.0
193,212,194,l,l,l,445.0
194,212,195,l,fc,r,526.0
195,212,196,l,fc,r,476.0
196,212,197,l,r,r,461.0
197,212,198,r,fc,l,488.0
198,212,199,l,fc,l,462.0
199,212,200,r,fc,r,720.0
200,212,201,r,r,r,412.0
201,212,202,r,fc,r,448.0
202,212,203,l,fc,r,458.0
203,212,204,r,l,l,378.0
204,212,205,r,fc,r,458.0
205,212,206,r,r,r,442.0
206,212,207,l,r,none,
207,212,208,r,fc,r,420.0
208,212,209,l,fc,r,416.0
209,212,210,r,l,l,372.0
210,212,211,l,r,r,302.0
211,212,212,r,r,r,334.0
212,212,213,l,fc,r,446.0
213,212,214,l,l,l,416.0
214,212,215,r,fc,r,472.0
215,212,216,l,r,r,422.0
216,212,217,r,fc,l,439.0
217,212,218,l,fc,r,423.0
218,212,219,l,fc,r,509.0
219,212,220,r,fc,r,320.0
220,212,221,r,r,l,223.0
221,212,222,r,l,l,461.0
222,212,223,r,fc,r,449.0
223,212,224,r,r,r,319.0
224,212,225,r,fc,l,491.0
225,212,226,l,l,l,333.0
226,212,227,l,fc,r,645.0
227,212,228,r,r,r,287.0
228,212,229,r,r,r,416.0
229,212,230,l,fc,l,460.0
230,212,231,l,l,l,356.0
231,212,232,r,r,r,312.0
232,212,233,l,l,l,360.0
233,212,234,r,l,r,308.0
234,212,235,r,r,r,454.0
235,212,236,l,l,l,334.0
236,212,237,l,fc,r,469.0
237,212,238,r,fc,r,532.0
238,212,239,r,r,r,393.0
239,212,240,l,r,l,329.0
240,212,241,r,l,l,467.0
241,212,242,r,l,l,437.0
242,212,243,l,r,l,360.0
243,212,244,l,fc,l,583.0
244,212,245,r,l,l,452.0
245,212,246,l,fc,r,556.0
246,212,247,l,fc,r,572.0
247,212,248,r,fc,r,752.0
248,212,249,r,r,r,368.0
249,212,250,l,fc,l,518.0
250,212,251,r,r,r,434.0
251,212,252,r,fc,r,486.0
252,212,253,l,fc,l,500.0
253,212,254,r,l,l,464.0
254,212,255,r,r,r,402.0
255,212,256,r,fc,l,460.0
256,212,257,r,fc,r,476.0
257,212,258,l,r,l,352.0
258,212,259,l,l,l,392.0
259,212,260,r,r,r,372.0
260,212,261,l,fc,l,534.0
261,212,262,l,fc,l,374.0
262,212,263,r,r,r,414.0
263,212,264,l,fc,r,534.0
264,212,265,l,fc,l,489.0
265,212,266,l,l,l,355.0
266,212,267,l,r,r,384.0
267,212,268,r,r,r,453.0
268,212,269,l,l,l,425.0
269,212,270,l,r,r,439.0
270,212,271,r,fc,r,563.0
271,212,272,r,l,l,369.0
272,212,273,l,l,l,435.0
273,212,274,r,fc,r,383.0
274,212,275,r,fc,l,473.0
275,212,276,r,fc,r,509.0
276,212,277,l,fc,l,487.0
277,212,278,l,r,r,445.0
278,212,279,r,l,l,471.0
279,212,280,l,l,l,460.0
280,212,281,r,r,r,388.0
281,212,282,l,fc,l,426.0
282,212,283,r,l,l,420.0
283,212,284,l,r,r,464.0
284,212,285,r,l,l,466.0
285,212,286,r,fc,r,480.0
286,212,287,r,fc,l,424.0
287,212,288,l,fc,l,329.0
288,212,289,r,r,r,327.0
289,212,290,l,r,r,469.0
290,212,291,l,l,l,443.0
291,212,292,r,fc,r,429.0
292,212,293,r,fc,r,623.0
293,212,294,l,fc,l,249.0
294,212,295,r,r,r,307.0
295,212,296,r,fc,l,521.0
296,212,297,l,l,l,409.0
297,212,298,r,l,l,463.0
298,212,299,l,r,r,465.0
299,212,300,r,l,none,
300,212,301,r,fc,r,503.0
301,212,302,l,l,l,317.0
302,212,303,l,r,r,385.0
303,212,304,r,r,r,419.0
304,212,305,r,fc,r,531.0
305,212,306,r,l,l,373.0
306,212,307,r,fc,r,437.0
307,212,308,r,r,r,385.0
308,212,309,l,l,l,351.0
309,212,310,r,fc,r,473.0
310,212,311,r,l,l,420.0
311,212,312,l,fc,l,468.0
312,212,313,r,fc,none,
313,212,314,l,fc,r,446.0
314,212,315,l,r,r,428.0
315,212,316,r,r,r,346.0
316,212,317,r,fc,l,436.0
317,212,318,r,fc,l,452.0
318,212,319,l,fc,r,468.0
319,212,320,r,l,l,422.0
320,212,321,r,r,r,376.0
321,212,322,r,fc,l,720.0
322,212,323,r,fc,r,524.0
323,212,324,r,fc,l,406.0
324,212,325,l,r,r,464.0
325,212,326,l,l,l,298.0
326,212,327,r,l,l,525.0
327,212,328,l,fc,l,411.0
328,212,329,r,r,r,371.0
329,212,330,l,fc,l,353.0
330,212,331,l,l,l,381.0
331,212,332,l,fc,l,433.0
332,212,333,r,l,l,481.0
333,212,334,l,fc,r,540.0
334,212,335,r,r,r,484.0
335,212,336,r,fc,r,406.0
336,212,337,r,fc,r,396.0
337,212,338,l,fc,r,428.0
338,212,339,r,l,l,514.0
339,212,340,l,fc,r,466.0
340,212,341,r,fc,r,504.0
341,212,342,r,l,l,494.0
342,212,343,r,fc,r,546.0
343,212,344,l,fc,none,
344,212,345,l,r,r,460.0
345,212,346,l,fc,none,
346,212,347,l,fc,l,516.0
347,212,348,l,fc,r,716.0
348,212,349,l,l,l,436.0
349,212,350,r,fc,l,412.0
350,212,351,r,fc,r,460.0
351,212,352,l,l,l,312.0
352,212,353,l,r,r,346.0
353,212,354,r,fc,l,448.0
354,212,355,l,l,l,406.0
355,212,356,r,fc,r,323.0
356,212,357,l,fc,l,377.0
357,212,358,l,l,r,289.0
358,212,359,l,fc,l,379.0
359,212,360,l,fc,l,347.0
360,212,361,l,fc,r,389.0
361,212,362,l,r,r,471.0
362,212,363,l,l,l,313.0
363,212,364,l,fc,r,465.0
364,212,365,l,r,r,471.0
365,212,366,l,fc,l,541.0
366,212,367,l,fc,r,537.0
367,212,368,r,fc,l,349.0
368,212,369,l,l,l,349.0
369,212,370,r,r,r,363.0
370,212,371,r,fc,l,453.0
371,212,372,l,r,r,345.0
372,212,373,l,fc,l,355.0
373,212,374,l,l,l,431.0
374,212,375,l,fc,l,349.0
375,212,376,r,fc,r,299.0
376,212,377,r,l,r,279.0
377,212,378,l,r,r,467.0
378,212,379,l,fc,l,464.0
379,212,380,r,fc,l,462.0
380,212,381,l,l,l,421.0
381,212,382,l,fc,r,460.0
382,212,383,r,fc,l,416.0
383,212,384,l,l,l,420.0
384,212,385,l,fc,l,404.0
385,212,386,l,r,r,454.0
386,212,387,l,l,l,298.0
387,212,388,l,l,l,330.0
388,212,389,r,fc,r,568.0
389,212,390,l,fc,r,430.0
390,212,391,l,r,r,500.0
391,212,392,r,l,l,396.0
392,212,393,r,l,l,564.0
393,212,394,l,fc,r,518.0
394,212,395,l,fc,l,330.0
395,212,396,r,r,r,468.0
396,212,397,r,l,l,437.0
397,212,398,l,fc,none,
398,212,399,l,fc,l,813.0
399,212,400,l,r,r,421.0
400,212,401,r,fc,r,412.0
401,212,402,l,fc,l,556.0
402,212,403,r,fc,r,457.0
403,212,404,r,fc,r,628.0
404,212,405,l,fc,r,482.0
405,212,406,r,fc,r,472.0
406,212,407,r,l,l,456.0
407,212,408,l,r,r,400.0
408,212,409,l,r,l,340.0
409,212,410,r,l,l,526.0
410,212,411,l,fc,l,360.0
411,212,412,r,l,l,476.0
412,212,413,l,r,r,364.0
413,212,414,r,fc,r,390.0
414,212,415,l,fc,l,384.0
415,212,416,r,r,r,330.0
416,212,417,l,fc,l,292.0
417,212,418,r,l,l,452.0
418,212,419,l,r,r,444.0
419,212,420,l,r,l,354.0
420,212,421,l,l,l,418.0
421,212,422,l,r,r,414.0
422,212,423,l,l,l,369.0
423,212,424,r,l,none,
424,212,425,r,r,r,291.0
425,212,426,r,fc,l,258.0
426,212,427,l,l,l,489.0
427,212,428,r,fc,r,455.0
428,212,429,r,fc,l,447.0
429,212,430,l,fc,l,397.0
430,212,431,r,fc,r,421.0
431,212,432,l,r,r,445.0
432,212,433,r,fc,l,451.0
433,212,434,r,fc,r,569.0
434,212,435,r,r,none,
435,212,436,r,l,l,327.0
436,212,437,r,r,r,301.0
437,212,438,l,r,r,513.0
438,212,439,r,fc,l,425.0
439,212,440,l,l,l,531.0
440,212,441,r,r,r,341.0
441,212,442,r,fc,r,393.0
442,212,443,r,fc,l,450.0
443,212,444,l,fc,l,452.0
444,212,445,l,fc,l,360.0
445,212,446,l,fc,r,588.0
446,212,447,r,r,r,461.0
447,212,448,r,l,l,539.0
448,212,449,l,fc,r,251.0
449,212,450,l,r,r,459.0
450,212,451,l,fc,l,487.0
451,212,452,l,l,l,413.0
452,212,453,r,fc,l,565.0
453,212,454,r,l,l,487.0
454,212,455,l,fc,none,
455,212,456,r,fc,r,453.0
456,212,457,l,r,r,397.0
457,212,458,r,fc,l,485.0
458,212,459,r,fc,r,347.0
459,212,460,l,l,l,409.0
460,212,461,r,l,l,411.0
461,212,462,r,fc,r,467.0
462,212,463,r,r,r,425.0
463,212,464,l,fc,l,463.0
464,212,465,l,fc,r,473.0
465,212,466,l,fc,l,333.0
466,212,467,r,fc,r,421.0
467,212,468,r,r,r,461.0
468,212,469,r,fc,r,377.0
469,212,470,r,fc,l,428.0
470,212,471,r,l,l,470.0
471,212,472,l,l,r,380.0
472,212,473,r,fc,l,436.0
473,212,474,r,r,r,372.0
474,212,475,r,r,r,450.0
475,212,476,l,fc,l,464.0
476,212,477,r,fc,r,450.0
477,212,478,l,fc,r,396.0
478,212,479,r,l,l,484.0
479,212,480,r,fc,none,
480,212,481,l,fc,r,2.0
481,212,482,l,r,r,394.0
482,212,483,r,fc,r,410.0
483,212,484,l,fc,r,444.0
484,212,485,r,fc,l,446.0
485,212,486,r,r,none,
486,212,487,l,fc,r,512.0
487,212,488,l,l,l,422.0
488,212,489,r,r,r,380.0
489,212,490,r,fc,l,400.0
490,212,491,r,r,r,491.0
491,212,492,r,l,l,457.0
492,212,493,l,l,l,464.0
493,212,494,r,r,r,362.0
494,212,495,l,fc,r,500.0
495,212,496,l,fc,l,332.0
496,212,497,r,r,r,404.0
497,212,498,l,l,l,554.0
498,212,499,l,fc,l,338.0
499,212,500,l,l,l,337.0
500,212,501,l,fc,l,353.0
501,212,502,l,l,l,454.0
502,212,503,l,fc,r,493.0
503,212,504,r,r,r,325.0
504,212,505,l,l,l,439.0
505,212,506,r,l,l,455.0
506,212,507,r,fc,r,443.0
507,212,508,l,r,r,417.0
508,212,509,l,fc,l,453.0
509,212,510,r,fc,r,457.0
510,212,511,l,l,l,357.0
511,212,512,l,fc,l,393.0
512,212,513,l,fc,r,425.0
513,212,514,l,fc,r,403.0
514,212,515,r,fc,r,481.0
515,212,516,r,r,l,345.0
516,212,517,l,fc,r,499.0
517,212,518,r,l,l,451.0
518,212,519,r,r,r,329.0
519,212,520,r,fc,r,347.0
520,212,521,l,fc,l,405.0
521,212,522,r,fc,r,399.0
522,212,523,r,r,r,319.0
523,212,524,l,l,l,334.0
524,212,525,l,fc,l,406.0
525,212,526,l,fc,l,377.0
526,212,527,l,r,r,436.0
527,212,528,l,r,r,472.0
528,212,529,r,fc,r,448.0
529,212,530,l,l,l,466.0
530,212,531,r,r,none,
531,212,532,r,r,r,340.0
532,212,533,r,fc,l,324.0
533,212,534,l,l,l,418.0
534,212,535,r,r,l,350.0
535,212,536,r,fc,r,432.0
536,212,537,r,r,r,296.0
537,212,538,r,l,l,452.0
538,212,539,r,r,r,296.0
539,212,540,r,fc,l,448.0
540,212,541,r,fc,r,410.0
541,212,542,r,fc,r,356.0
542,212,543,r,r,r,508.0
543,212,544,l,l,l,426.0
544,212,545,l,r,r,424.0
545,212,546,l,r,r,417.0
546,212,547,l,fc,r,452.0
547,212,548,l,l,l,360.0
548,212,549,l,fc,r,457.0
549,212,550,r,fc,r,448.0
550,212,551,l,fc,r,386.0
551,212,552,l,fc,r,392.0
552,212,553,l,r,none,
553,212,554,l,r,l,330.0
554,212,555,l,fc,r,534.0
555,212,556,r,l,l,402.0
556,212,557,r,fc,r,408.0
557,212,558,r,r,r,338.0
558,212,559,l,r,r,402.0
559,212,560,r,fc,l,452.0
560,212,561,r,l,r,324.0
561,212,562,r,r,r,322.0
562,212,563,r,l,l,370.0
563,212,564,r,l,l,484.0
564,212,565,l,r,r,338.0
565,212,566,r,fc,r,498.0
566,212,567,r,fc,r,502.0
567,212,568,r,fc,l,418.0
568,212,569,r,l,l,457.0
569,212,570,l,r,r,385.0
570,212,571,l,fc,l,304.0
571,212,572,l,fc,r,437.0
572,212,573,r,fc,r,345.0
573,212,574,r,fc,l,395.0
574,212,575,r,l,l,431.0
575,212,576,l,fc,r,441.0
576,212,577,l,r,l,285.0
577,212,578,r,l,l,415.0
578,212,579,r,l,l,431.0
579,212,580,l,fc,r,433.0
580,212,581,l,r,l,417.0
581,212,582,r,fc,r,465.0
582,212,583,r,fc,r,466.0
583,212,584,l,fc,l,465.0
584,212,585,r,fc,r,451.0
585,212,586,r,fc,r,457.0
586,212,587,l,fc,l,445.0
587,212,588,l,fc,r,411.0
588,212,589,l,l,l,373.0
589,212,590,l,l,none,
590,212,591,l,fc,r,767.0
591,212,592,r,r,r,436.0
592,212,593,r,l,l,383.0
593,212,594,l,fc,r,517.0
594,212,595,r,fc,r,425.0
595,212,596,l,fc,r,487.0
596,212,597,r,l,l,377.0
597,212,598,l,r,r,425.0
598,212,599,l,l,l,399.0
599,212,600,r,fc,r,319.0
600,212,601,r,l,l,411.0
601,212,602,l,r,r,391.0
602,212,603,l,l,l,335.0
603,212,604,l,fc,r,475.0
604,212,605,l,fc,none,
605,212,606,l,l,l,391.0
606,212,607,r,r,r,353.0
607,212,608,l,l,l,357.0
608,212,609,r,fc,r,373.0
609,212,610,r,l,l,409.0
610,212,611,l,fc,l,395.0
611,212,612,r,r,r,339.0
612,212,613,r,fc,r,439.0
613,212,614,l,fc,l,279.0
614,212,615,r,l,l,462.0
615,212,616,r,fc,r,536.0
616,212,617,l,l,l,437.0
617,212,618,l,r,r,460.0
618,212,619,r,fc,l,452.0
619,212,620,l,l,l,404.0
620,212,621,r,r,r,310.0
621,212,622,l,fc,l,372.0
622,212,623,r,fc,r,346.0
623,212,624,l,fc,l,432.0
624,212,625,r,fc,r,312.0
625,212,626,l,fc,r,500.0
626,212,627,r,fc,r,416.0
627,212,628,l,r,r,440.0
628,212,629,n,fc,l,489.0
629,212,630,n,fc,l,403.0
630,212,631,n,fc,r,453.0
631,212,632,n,fc,r,313.0
632,212,633,n,r,r,353.0
633,212,634,n,fc,r,389.0
634,212,635,n,fc,l,467.0
635,212,636,n,fc,r,445.0
636,212,637,n,l,l,539.0
637,212,638,n,r,r,351.0
638,212,639,n,fc,r,469.0
639,212,640,n,fc,l,334.0
640,212,641,n,fc,r,403.0
641,212,642,n,r,l,249.0
642,212,643,n,fc,r,379.0
643,212,644,n,l,l,415.0
644,212,645,n,r,r,422.0
645,212,646,n,fc,r,512.0
646,212,647,n,l,l,370.0
647,212,648,n,fc,r,425.0
648,212,649,n,fc,r,445.0
649,212,650,n,l,l,383.0
650,212,651,n,r,r,361.0
651,212,652,n,l,r,377.0
652,212,653,n,l,l,489.0
653,212,654,n,r,r,391.0
654,212,655,n,l,l,517.0
655,212,656,n,l,l,489.0
656,212,657,n,r,r,427.0
657,212,658,n,r,r,449.0
658,212,659,n,l,l,427.0
659,212,660,n,l,l,477.0
660,212,661,n,r,r,393.0
661,212,662,n,l,l,317.0
662,212,663,n,l,l,517.0
663,212,664,n,r,r,309.0
664,212,665,n,l,l,423.0
665,212,666,n,l,l,477.0
666,212,667,n,fc,r,505.0
667,212,668,n,r,r,431.0
668,212,669,n,r,r,436.0
669,212,670,n,l,none,
670,212,671,n,fc,r,653.0
671,212,672,n,fc,r,408.0
672,212,673,n,fc,l,486.0
673,212,674,n,fc,r,424.0
674,212,675,n,r,r,358.0
675,212,676,n,fc,r,406.0
676,212,677,n,r,r,428.0
677,212,678,n,fc,r,450.0
678,212,679,n,l,l,396.0
679,212,680,n,r,r,368.0
680,212,681,n,fc,l,506.0
681,212,682,n,fc,r,308.0
682,212,683,n,fc,r,534.0
683,212,684,n,fc,l,490.0
684,212,685,n,fc,none,
685,212,686,n,r,r,368.0
686,212,687,n,fc,l,514.0
687,212,688,n,l,l,486.0
688,212,689,n,fc,r,492.0
689,212,690,n,r,r,506.0
690,212,691,n,fc,l,452.0
691,212,692,n,fc,r,413.0
692,212,693,n,fc,r,381.0
693,212,694,n,fc,l,386.0
694,212,695,n,r,r,231.0
695,212,696,n,fc,l,454.0
696,212,697,n,l,l,502.0
697,212,698,n,l,l,476.0
698,212,699,n,fc,r,384.0
699,212,700,n,fc,l,350.0
700,212,701,n,r,r,376.0
701,212,702,n,fc,r,480.0
702,212,703,n,fc,r,388.0
703,212,704,n,fc,l,626.0
704,212,705,n,l,l,416.0
705,212,706,n,l,l,500.0
706,212,707,n,fc,r,384.0
707,212,708,n,r,r,350.0
708,212,709,n,fc,l,472.0
709,212,710,n,l,l,460.0
710,212,711,n,l,l,412.0
711,212,712,n,fc,l,392.0
712,212,713,n,r,r,410.0
713,212,714,n,fc,r,540.0
714,212,715,n,l,l,363.0
715,212,716,n,r,r,377.0
716,212,717,n,l,l,382.0
717,212,718,n,r,r,389.0
718,212,719,n,fc,l,439.0
719,212,720,n,r,r,351.0
720,212,721,n,fc,l,377.0
721,212,722,n,l,r,345.0
722,212,723,n,r,r,439.0
723,212,724,n,fc,l,415.0
724,212,725,n,fc,r,391.0
725,212,726,n,l,none,
726,212,727,n,fc,r,433.0
727,212,728,n,r,r,445.0
728,212,729,n,fc,r,439.0
729,212,730,n,fc,r,487.0
730,212,731,n,fc,l,449.0
731,212,732,n,l,l,379.0
732,212,733,n,r,r,539.0
733,212,734,n,fc,l,459.0
734,212,735,n,fc,r,495.0
735,212,736,n,r,l,351.0
736,212,737,n,fc,l,484.0
737,212,738,n,l,l,382.0
738,212,739,n,fc,r,358.0
739,212,740,n,fc,l,295.0
740,212,741,n,fc,r,402.0
741,212,742,n,r,l,348.0
742,212,743,n,fc,r,433.0
743,212,744,n,l,none,
744,212,745,n,r,r,449.0
745,212,746,n,fc,l,443.0
746,212,747,n,fc,r,433.0
747,212,748,n,fc,l,365.0
748,212,749,n,l,l,450.0
749,212,750,n,l,l,404.0
750,212,751,n,r,r,410.0
751,212,752,n,fc,r,416.0
752,212,753,n,fc,l,288.0
753,212,754,n,fc,r,374.0
754,212,755,n,l,l,365.0
755,212,756,n,fc,r,383.0
756,212,757,n,r,l,297.0
757,212,758,n,fc,r,429.0
758,212,759,n,fc,l,455.0
759,212,760,n,r,r,343.0
760,212,761,n,fc,l,433.0
761,212,762,n,l,r,316.0
762,212,763,n,r,l,348.0
763,212,764,n,fc,l,438.0
764,212,765,n,r,r,366.0
765,212,766,n,l,l,340.0
766,212,767,n,fc,l,472.0
767,212,768,n,l,l,436.0
768,212,769,n,fc,r,548.0
769,212,770,n,r,r,394.0
770,212,771,n,l,l,426.0
771,212,772,n,fc,r,500.0
772,212,773,n,fc,l,436.0
773,212,774,n,fc,r,424.0
774,212,775,n,r,none,
775,212,776,n,fc,l,518.0
776,212,777,n,r,r,321.0
777,212,778,n,l,l,425.0
778,212,779,n,r,r,356.0
779,212,780,n,r,l,307.0
780,212,781,n,fc,r,521.0
781,212,782,n,l,l,453.0
782,212,783,n,r,r,381.0
783,212,784,n,r,r,401.0
784,212,785,n,fc,l,487.0
785,212,786,n,l,l,421.0
786,212,787,n,fc,r,621.0
787,212,788,n,l,l,425.0
788,212,789,n,r,r,403.0
789,212,790,n,fc,r,457.0
790,212,791,n,fc,r,481.0
791,212,792,n,fc,r,461.0
792,212,793,n,r,r,373.0
793,212,794,n,l,l,377.0
794,212,795,n,fc,r,385.0
795,212,796,n,fc,l,399.0
796,212,797,n,fc,r,403.0
797,212,798,n,l,l,397.0
798,212,799,n,r,r,513.0
799,212,800,n,fc,r,838.0
800,212,801,n,l,l,438.0
801,212,802,n,l,l,507.0
802,212,803,n,fc,l,440.0
803,212,804,n,r,r,420.0
804,212,805,n,r,r,440.0
805,212,806,n,l,l,384.0
806,212,807,n,r,r,450.0
807,212,808,n,fc,l,391.0
808,212,809,n,fc,r,493.0
809,212,810,n,fc,r,425.0
810,212,811,n,fc,none,
811,212,812,n,l,l,519.0
812,212,813,n,fc,r,387.0
813,212,814,n,fc,r,481.0
814,212,815,n,fc,r,489.0
815,212,816,n,r,r,451.0
816,212,817,n,fc,l,357.0
817,212,818,n,l,l,425.0
818,212,819,n,fc,r,391.0
819,212,820,n,r,l,401.0
820,212,821,n,l,r,365.0
821,212,822,n,fc,r,450.0
822,212,823,n,fc,r,408.0
823,212,824,n,r,r,418.0
824,212,825,n,fc,l,438.0
825,212,826,n,fc,r,418.0
826,212,827,n,r,r,442.0
827,212,828,n,fc,r,604.0
828,212,829,n,l,l,438.0
829,212,830,n,fc,r,470.0
830,212,831,n,fc,r,300.0
831,212,832,n,r,r,484.0
832,212,833,n,fc,l,378.0
833,212,834,n,l,r,450.0
834,212,835,n,l,l,432.0
835,212,836,n,r,r,352.0
836,212,837,n,fc,l,450.0
837,212,838,n,fc,r,408.0
838,212,839,n,fc,l,342.0
839,212,840,n,fc,r,394.0
840,212,841,n,r,r,342.0
841,212,842,n,fc,l,402.0
842,212,843,n,l,r,384.0
843,212,844,n,l,l,422.0
844,212,845,n,r,r,327.0
845,212,846,n,fc,l,505.0
846,212,847,n,fc,r,440.0
847,212,848,n,fc,l,375.0
848,212,849,n,l,l,515.0
849,212,850,n,r,r,395.0
850,212,851,n,fc,l,339.0
851,212,852,n,fc,r,291.0
852,212,853,n,fc,none,
853,212,854,n,l,l,464.0
854,212,855,n,fc,r,486.0
855,212,856,n,fc,r,384.0
856,212,857,n,l,l,382.0
857,212,858,n,r,r,454.0
858,212,859,n,fc,l,394.0
859,212,860,n,fc,none,
860,212,861,n,l,l,470.0
861,212,862,n,l,none,
862,212,863,n,fc,l,460.0
863,212,864,n,r,r,392.0
864,212,865,n,fc,l,462.0
865,212,866,n,l,r,380.0
866,212,867,n,fc,l,463.0
867,212,868,n,r,r,469.0
868,212,869,n,l,l,410.0
869,212,870,n,fc,l,460.0
870,212,871,n,fc,r,391.0
871,212,872,n,l,l,405.0
872,212,873,n,fc,r,399.0
873,212,874,n,r,r,403.0
874,212,875,n,fc,r,429.0
875,212,876,n,fc,l,459.0
876,212,877,n,l,l,427.0
877,212,878,n,r,r,473.0
878,212,879,n,r,r,429.0
879,212,880,n,fc,l,335.0
880,212,881,n,fc,l,423.0
881,212,882,n,fc,r,353.0
882,212,883,n,l,l,353.0
883,212,884,n,fc,l,452.0
884,212,885,n,r,r,368.0
885,212,886,n,fc,r,398.0
886,212,887,n,fc,r,434.0
887,212,888,n,fc,l,402.0
888,212,889,n,fc,r,472.0
889,212,890,n,r,none,
890,212,891,n,fc,r,492.0
891,212,892,n,fc,l,360.0
892,212,893,n,l,r,340.0
893,212,894,n,r,r,364.0
894,212,895,n,l,l,486.0
895,212,896,n,l,l,456.0
896,212,897,n,r,r,368.0
897,212,898,n,l,l,374.0
898,212,899,n,r,r,382.0
899,212,900,n,r,r,474.0
900,212,901,n,l,l,454.0
901,212,902,n,r,r,334.0
902,212,903,n,r,r,330.0
903,212,904,n,l,l,340.0
904,212,905,n,fc,r,504.0
905,212,906,n,r,r,382.0
906,212,907,n,r,r,401.0
907,212,908,n,fc,l,495.0
908,212,909,n,fc,r,456.0
909,212,910,n,l,l,351.0
910,212,911,n,l,r,365.0
911,212,912,n,fc,r,467.0
912,212,913,n,r,r,381.0
913,212,914,n,fc,l,469.0
914,212,915,n,fc,r,535.0
915,212,916,n,fc,r,507.0
916,212,917,n,fc,l,405.0
917,212,918,n,r,r,403.0
918,212,919,n,l,l,344.0
919,212,920,n,r,r,410.0
920,212,921,n,fc,r,384.0
921,212,922,n,r,r,510.0
922,212,923,n,fc,l,508.0
923,212,924,n,fc,l,446.0
924,212,925,n,l,l,404.0
925,212,926,n,fc,r,386.0
926,212,927,n,fc,l,404.0
927,212,928,n,fc,r,274.0
928,212,929,n,r,r,390.0
929,212,930,n,l,l,355.0
930,212,931,n,r,none,
931,212,932,n,r,r,380.0
932,212,933,n,l,l,363.0
933,212,934,n,l,l,417.0
934,212,935,n,fc,r,409.0
935,212,936,n,r,r,419.0
936,212,937,n,l,l,439.0
937,212,938,n,fc,r,395.0
938,212,939,n,fc,l,475.0
939,212,940,n,l,l,543.0
940,212,941,n,fc,r,429.0
941,212,942,n,r,r,439.0
942,212,943,n,l,l,319.0
943,212,944,n,fc,r,362.0
944,212,945,n,fc,l,345.0
945,212,946,n,fc,r,399.0
946,212,947,n,l,l,539.0
947,212,948,n,r,r,391.0
948,212,949,n,l,l,461.0
949,212,950,n,fc,r,309.0
950,212,951,n,fc,l,295.0
951,212,952,n,l,r,291.0
952,212,953,n,fc,r,452.0
953,212,954,n,r,l,304.0
954,212,955,n,fc,r,439.0
955,212,956,n,fc,l,442.0
956,212,957,n,fc,r,372.0
957,212,958,n,l,l,430.0
958,212,959,n,fc,l,496.0
959,212,960,n,l,r,308.0
960,212,961,n,r,r,386.0
961,212,962,n,fc,r,364.0
962,212,963,n,fc,l,478.0
963,212,964,n,fc,l,442.0
964,212,965,n,l,l,512.0
965,212,966,n,r,r,389.0
966,212,967,n,fc,l,383.0
967,212,968,n,l,l,373.0
968,212,969,n,l,l,405.0
969,212,970,n,fc,l,411.0
970,212,971,n,r,r,395.0
971,212,972,n,fc,r,375.0
972,212,973,n,fc,l,439.0
973,212,974,n,r,r,399.0
974,212,975,n,fc,r,403.0
975,212,976,n,l,l,389.0
976,212,977,n,fc,r,634.0
977,212,978,n,fc,r,414.0
978,212,979,n,fc,l,403.0
979,212,980,n,fc,l,420.0
980,212,981,n,r,r,368.0
981,212,982,n,fc,l,370.0
982,212,983,n,fc,l,456.0
983,212,984,n,fc,r,336.0
984,212,985,n,fc,l,460.0
985,212,986,n,l,none,
986,212,987,n,r,r,396.0
987,212,988,n,fc,l,456.0
988,212,989,l,,none,
989,212,990,r,,none,
990,212,991,l,,none,
991,212,992,r,,none,
992,212,993,r,,none,
993,212,994,r,,none,
994,212,995,l,,none,
995,212,996,r,,none,
996,212,997,l,,none,
997,212,998,r,,none,
998,212,999,l,,none,
999,212,1000,l,,none,
1000,212,1001,r,,none,
1001,212,1002,r,,none,
1002,212,1003,r,,none,
1003,212,1004,r,,none,
1004,212,1005,l,,none,
1005,212,1006,r,,none,
1006,212,1007,r,,none,
1007,212,1008,r,,none,
1008,212,1009,l,,none,
1009,212,1010,r,,none,
1010,212,1011,l,,none,
1011,212,1012,r,,none,
1012,212,1013,l,,none,
1013,212,1014,r,,none,
1014,212,1015,l,,none,
1015,212,1016,l,,none,
1016,212,1017,r,,none,
1017,212,1018,l,,none,
1018,212,1019,r,,none,
1019,212,1020,l,,none,
1020,212,1021,l,,none,
1021,212,1022,l,,none,
1022,212,1023,l,,none,
1023,212,1024,l,,none,
1024,212,1025,r,,none,
1025,212,1026,l,,none,
1026,212,1027,r,,none,
1027,212,1028,l,,none,
1028,212,1029,l,,none,
1029,212,1030,l,,none,
1030,212,1031,r,,none,
1031,212,1032,l,,none,
1032,212,1033,r,,none,
1033,212,1034,r,,none,
1034,212,1035,r,,none,
1035,212,1036,r,,none,
1036,212,1037,l,,none,
1037,212,1038,l,,none,
0,213,1,l,r,none,
1,213,2,l,r,r,412.0
2,213,3,r,l,l,556.0
3,213,4,r,r,r,508.0
4,213,5,l,r,r,486.0
5,213,6,r,r,r,492.0
6,213,7,l,r,r,538.0
7,213,8,r,r,r,514.0
8,213,9,l,l,l,494.0
9,213,10,r,l,l,502.0
10,213,11,r,l,l,442.0
11,213,12,l,l,l,409.0
12,213,13,l,l,l,375.0
13,213,14,l,l,l,407.0
14,213,15,r,l,l,437.0
15,213,16,r,r,r,449.0
16,213,17,l,l,l,390.0
17,213,18,l,r,l,329.0
18,213,19,r,fc,r,751.0
19,213,20,r,fc,r,636.0
20,213,21,r,fc,l,504.0
21,213,22,r,l,l,426.0
22,213,23,r,l,l,416.0
23,213,24,l,fc,l,568.0
24,213,25,l,fc,l,534.0
25,213,26,r,fc,r,606.0
26,213,27,r,fc,r,472.0
27,213,28,r,r,r,400.0
28,213,29,r,l,l,464.0
29,213,30,l,l,l,350.0
30,213,31,l,fc,r,512.0
31,213,32,l,r,r,438.0
32,213,33,l,fc,r,522.0
33,213,34,r,r,r,378.0
34,213,35,l,fc,r,470.0
35,213,36,r,fc,l,484.0
36,213,37,l,l,l,429.0
37,213,38,r,r,r,471.0
38,213,39,r,l,l,405.0
39,213,40,l,fc,r,471.0
40,213,41,l,r,r,421.0
41,213,42,r,r,r,389.0
42,213,43,l,fc,l,403.0
43,213,44,l,l,l,481.0
44,213,45,l,r,r,425.0
45,213,46,l,fc,r,435.0
46,213,47,r,fc,l,479.0
47,213,48,r,fc,l,455.0
48,213,49,l,l,l,439.0
49,213,50,r,r,r,438.0
50,213,51,l,l,r,419.0
51,213,52,l,l,l,431.0
52,213,53,r,l,l,437.0
53,213,54,r,l,l,456.0
54,213,55,l,r,r,464.0
55,213,56,r,r,r,370.0
56,213,57,r,l,l,416.0
57,213,58,r,l,l,400.0
58,213,59,r,l,l,428.0
59,213,60,r,l,l,410.0
60,213,61,l,l,l,292.0
61,213,62,l,r,r,432.0
62,213,63,l,r,r,408.0
63,213,64,r,l,r,417.0
64,213,65,l,l,l,357.0
65,213,66,r,r,r,497.0
66,213,67,l,l,l,366.0
67,213,68,l,r,r,415.0
68,213,69,l,l,l,347.0
69,213,70,r,r,r,361.0
70,213,71,r,l,l,397.0
71,213,72,r,r,r,321.0
72,213,73,r,r,r,393.0
73,213,74,r,l,l,433.0
74,213,75,l,r,l,409.0
75,213,76,l,l,l,375.0
76,213,77,r,r,r,415.0
77,213,78,r,l,l,415.0
78,213,79,l,l,l,411.0
79,213,80,l,r,r,401.0
80,213,81,r,l,l,412.0
81,213,82,l,l,l,416.0
82,213,83,r,r,r,408.0
83,213,84,l,r,r,434.0
84,213,85,l,r,r,450.0
85,213,86,l,r,r,404.0
86,213,87,r,l,l,454.0
87,213,88,r,l,l,394.0
88,213,89,l,l,l,358.0
89,213,90,r,r,r,450.0
90,213,91,r,r,r,368.0
91,213,92,r,r,r,346.0
92,213,93,l,l,l,436.0
93,213,94,l,l,l,424.0
94,213,95,r,r,r,498.0
95,213,96,l,r,r,454.0
96,213,97,l,r,r,410.0
97,213,98,r,r,r,456.0
98,213,99,l,l,r,323.0
99,213,100,l,r,r,365.0
100,213,101,r,r,r,359.0
101,213,102,l,l,l,387.0
102,213,103,r,l,l,482.0
103,213,104,l,r,r,397.0
104,213,105,l,r,r,401.0
105,213,106,l,r,r,395.0
106,213,107,r,l,r,355.0
107,213,108,r,r,r,343.0
108,213,109,l,fc,r,640.0
109,213,110,r,l,l,475.0
110,213,111,r,fc,l,544.0
111,213,112,l,fc,r,486.0
112,213,113,r,fc,r,412.0
113,213,114,l,fc,r,484.0
114,213,115,r,fc,l,614.0
115,213,116,r,fc,l,406.0
116,213,117,r,l,l,408.0
117,213,118,l,fc,l,442.0
118,213,119,l,r,r,456.0
119,213,120,r,fc,r,492.0
120,213,121,l,fc,r,414.0
121,213,122,l,r,l,302.0
122,213,123,l,l,l,375.0
123,213,124,l,fc,l,483.0
124,213,125,r,fc,r,301.0
125,213,126,l,fc,r,408.0
126,213,127,r,r,r,295.0
127,213,128,l,fc,r,426.0
128,213,129,r,fc,r,420.0
129,213,130,l,r,l,356.0
130,213,131,l,fc,r,432.0
131,213,132,r,fc,l,456.0
132,213,133,r,fc,l,448.0
133,213,134,l,fc,l,458.0
134,213,135,r,fc,l,486.0
135,213,136,l,l,l,488.0
136,213,137,r,fc,l,438.0
137,213,138,l,l,l,498.0
138,213,139,l,fc,r,606.0
139,213,140,l,r,r,344.0
140,213,141,r,l,l,522.0
141,213,142,r,r,r,358.0
142,213,143,r,fc,r,430.0
143,213,144,l,fc,r,432.0
144,213,145,r,l,l,400.0
145,213,146,r,fc,l,420.0
146,213,147,r,fc,r,276.0
147,213,148,r,r,r,300.0
148,213,149,l,r,r,392.0
149,213,150,r,l,l,462.0
150,213,151,r,fc,l,434.0
151,213,152,l,l,l,334.0
152,213,153,r,fc,l,446.0
153,213,154,l,fc,r,407.0
154,213,155,l,fc,r,437.0
155,213,156,l,r,l,441.0
156,213,157,r,fc,l,517.0
157,213,158,l,fc,r,501.0
158,213,159,r,l,l,472.0
159,213,160,l,r,r,452.0
160,213,161,r,l,l,476.0
161,213,162,r,l,l,425.0
162,213,163,l,r,r,455.0
163,213,164,r,fc,r,466.0
164,213,165,r,r,r,416.0
165,213,166,r,fc,l,444.0
166,213,167,l,l,l,378.0
167,213,168,l,r,r,462.0
168,213,169,r,fc,r,404.0
169,213,170,l,fc,r,454.0
170,213,171,r,l,l,438.0
171,213,172,l,l,l,402.0
172,213,173,r,r,r,452.0
173,213,174,r,fc,r,444.0
174,213,175,r,r,r,318.0
175,213,176,l,fc,r,430.0
176,213,177,r,l,l,480.0
177,213,178,r,r,r,456.0
178,213,179,l,fc,r,456.0
179,213,180,r,fc,r,476.0
180,213,181,l,l,l,355.0
181,213,182,r,fc,l,479.0
182,213,183,l,l,l,351.0
183,213,184,r,r,r,441.0
184,213,185,r,r,r,405.0
185,213,186,l,fc,r,438.0
186,213,187,l,l,l,338.0
187,213,188,l,fc,l,454.0
188,213,189,r,r,r,382.0
189,213,190,l,r,r,468.0
190,213,191,r,l,l,458.0
191,213,192,r,fc,l,534.0
192,213,193,r,r,r,350.0
193,213,194,r,fc,r,468.0
194,213,195,l,fc,l,386.0
195,213,196,r,l,l,468.0
196,213,197,r,r,r,382.0
197,213,198,r,fc,r,459.0
198,213,199,r,fc,r,438.0
199,213,200,r,fc,r,402.0
200,213,201,l,l,l,356.0
201,213,202,r,l,l,408.0
202,213,203,r,r,l,386.0
203,213,204,l,r,r,488.0
204,213,205,l,fc,r,438.0
205,213,206,l,fc,r,454.0
206,213,207,r,l,l,446.0
207,213,208,l,r,r,512.0
208,213,209,r,r,r,405.0
209,213,210,l,fc,l,619.0
210,213,211,l,fc,l,495.0
211,213,212,l,l,l,363.0
212,213,213,l,r,r,457.0
213,213,214,l,fc,r,481.0
214,213,215,l,fc,l,396.0
215,213,216,l,r,r,529.0
216,213,217,l,l,l,518.0
217,213,218,l,r,r,499.0
218,213,219,l,l,l,462.0
219,213,220,l,l,l,433.0
220,213,221,l,fc,l,536.0
221,213,222,r,r,r,384.0
222,213,223,l,fc,r,446.0
223,213,224,r,fc,r,440.0
224,213,225,r,l,l,448.0
225,213,226,l,l,l,418.0
226,213,227,r,r,r,498.0
227,213,228,l,l,l,390.0
228,213,229,l,fc,r,528.0
229,213,230,r,l,l,458.0
230,213,231,l,fc,l,550.0
231,213,232,l,fc,l,448.0
232,213,233,r,fc,r,450.0
233,213,234,l,r,r,465.0
234,213,235,r,fc,r,483.0
235,213,236,r,fc,r,428.0
236,213,237,l,r,r,509.0
237,213,238,r,fc,l,531.0
238,213,239,r,r,r,522.0
239,213,240,l,r,r,467.0
240,213,241,l,l,l,388.0
241,213,242,r,fc,l,458.0
242,213,243,r,r,r,393.0
243,213,244,l,fc,r,469.0
244,213,245,l,r,r,491.0
245,213,246,r,fc,l,545.0
246,213,247,l,l,l,372.0
247,213,248,r,r,r,425.0
248,213,249,l,fc,r,439.0
249,213,250,r,fc,r,415.0
250,213,251,l,l,l,355.0
251,213,252,l,fc,l,455.0
252,213,253,l,l,l,495.0
253,213,254,r,fc,l,459.0
254,213,255,l,fc,r,479.0
255,213,256,l,fc,r,451.0
256,213,257,r,fc,r,441.0
257,213,258,r,fc,l,597.0
258,213,259,l,fc,l,425.0
259,213,260,r,r,r,383.0
260,213,261,r,l,l,493.0
261,213,262,r,fc,l,453.0
262,213,263,r,l,l,501.0
263,213,264,l,r,r,497.0
264,213,265,l,l,none,
265,213,266,r,l,l,425.0
266,213,267,r,fc,l,439.0
267,213,268,r,r,r,366.0
268,213,269,l,fc,r,496.0
269,213,270,r,fc,r,428.0
270,213,271,l,l,l,358.0
271,213,272,r,l,l,430.0
272,213,273,l,fc,l,452.0
273,213,274,l,fc,l,512.0
274,213,275,r,fc,r,362.0
275,213,276,l,fc,r,450.0
276,213,277,r,r,r,368.0
277,213,278,r,l,l,478.0
278,213,279,l,r,r,485.0
279,213,280,r,fc,l,555.0
280,213,281,r,r,r,467.0
281,213,282,r,l,l,454.0
282,213,283,r,fc,l,545.0
283,213,284,r,fc,r,459.0
284,213,285,r,fc,r,451.0
285,213,286,r,r,r,417.0
286,213,287,l,l,l,385.0
287,213,288,r,fc,l,483.0
288,213,289,r,r,r,385.0
289,213,290,r,fc,r,507.0
290,213,291,l,fc,l,541.0
291,213,292,l,fc,r,465.0
292,213,293,l,r,r,511.0
293,213,294,l,fc,r,445.0
294,213,295,r,l,l,439.0
295,213,296,r,fc,l,462.0
296,213,297,r,r,r,508.0
297,213,298,l,fc,r,458.0
298,213,299,r,fc,l,486.0
299,213,300,l,l,l,364.0
300,213,301,l,l,l,434.0
301,213,302,r,r,r,466.0
302,213,303,l,fc,r,452.0
303,213,304,r,l,l,436.0
304,213,305,r,fc,l,504.0
305,213,306,r,l,l,449.0
306,213,307,l,r,r,427.0
307,213,308,l,fc,r,461.0
308,213,309,r,fc,r,411.0
309,213,310,r,r,r,539.0
310,213,311,l,l,l,507.0
311,213,312,l,fc,l,393.0
312,213,313,r,r,r,397.0
313,213,314,r,l,l,469.0
314,213,315,l,fc,l,487.0
315,213,316,l,fc,l,465.0
316,213,317,l,fc,r,483.0
317,213,318,r,l,l,569.0
318,213,319,l,fc,r,488.0
319,213,320,l,r,r,433.0
320,213,321,r,fc,l,469.0
321,213,322,r,l,l,483.0
322,213,323,r,fc,r,569.0
323,213,324,r,fc,r,330.0
324,213,325,r,l,l,460.0
325,213,326,r,fc,l,468.0
326,213,327,r,r,r,438.0
327,213,328,r,fc,r,450.0
328,213,329,l,fc,r,408.0
329,213,330,r,fc,l,402.0
330,213,331,r,l,l,432.0
331,213,332,r,r,r,500.0
332,213,333,r,l,l,496.0
333,213,334,r,fc,l,507.0
334,213,335,l,fc,r,441.0
335,213,336,l,fc,r,427.0
336,213,337,l,fc,r,473.0
337,213,338,l,fc,l,285.0
338,213,339,r,fc,l,444.0
339,213,340,l,l,l,410.0
340,213,341,l,r,r,468.0
341,213,342,l,r,r,462.0
342,213,343,l,l,l,386.0
343,213,344,l,fc,l,484.0
344,213,345,r,fc,r,318.0
345,213,346,l,r,r,446.0
346,213,347,l,r,r,444.0
347,213,348,l,l,r,482.0
348,213,349,l,l,l,468.0
349,213,350,r,r,r,406.0
350,213,351,l,fc,r,482.0
351,213,352,r,l,l,428.0
352,213,353,r,l,l,434.0
353,213,354,l,fc,l,474.0
354,213,355,l,fc,l,359.0
355,213,356,r,fc,l,506.0
356,213,357,l,r,r,436.0
357,213,358,l,l,l,448.0
358,213,359,l,r,r,470.0
359,213,360,r,fc,l,468.0
360,213,361,l,r,r,462.0
361,213,362,l,fc,r,440.0
362,213,363,l,l,l,416.0
363,213,364,l,fc,r,440.0
364,213,365,l,fc,r,524.0
365,213,366,l,r,r,558.0
366,213,367,l,r,r,450.0
367,213,368,r,fc,l,540.0
368,213,369,r,fc,r,570.0
369,213,370,l,r,r,504.0
370,213,371,l,fc,r,422.0
371,213,372,r,r,r,477.0
372,213,373,r,fc,l,492.0
373,213,374,l,l,l,352.0
374,213,375,l,r,r,516.0
375,213,376,l,r,r,452.0
376,213,377,l,l,l,368.0
377,213,378,l,r,r,454.0
378,213,379,r,fc,l,474.0
379,213,380,l,r,r,458.0
380,213,381,l,l,l,354.0
381,213,382,r,r,r,354.0
382,213,383,l,fc,r,426.0
383,213,384,r,l,l,428.0
384,213,385,r,fc,l,502.0
385,213,386,r,r,l,474.0
386,213,387,l,fc,r,506.0
387,213,388,r,l,l,487.0
388,213,389,l,fc,r,505.0
389,213,390,r,l,l,431.0
390,213,391,l,r,r,471.0
391,213,392,r,fc,l,453.0
392,213,393,l,fc,l,497.0
393,213,394,r,fc,l,509.0
394,213,395,r,fc,r,599.0
395,213,396,l,fc,r,551.0
396,213,397,r,fc,l,485.0
397,213,398,r,fc,l,415.0
398,213,399,r,fc,r,443.0
399,213,400,r,l,l,473.0
400,213,401,l,l,l,457.0
401,213,402,r,r,r,417.0
402,213,403,l,fc,r,465.0
403,213,404,r,l,l,402.0
404,213,405,l,fc,l,440.0
405,213,406,l,l,l,372.0
406,213,407,l,fc,r,534.0
407,213,408,r,r,r,383.0
408,213,409,l,fc,l,514.0
409,213,410,r,l,l,502.0
410,213,411,r,fc,r,478.0
411,213,412,l,fc,r,526.0
412,213,413,r,fc,l,468.0
413,213,414,l,l,l,402.0
414,213,415,r,r,r,480.0
415,213,416,l,l,l,367.0
416,213,417,l,l,l,417.0
417,213,418,r,fc,r,513.0
418,213,419,l,fc,l,497.0
419,213,420,r,fc,r,369.0
420,213,421,r,r,r,455.0
421,213,422,r,l,l,431.0
422,213,423,l,fc,l,399.0
423,213,424,l,fc,r,435.0
424,213,425,l,l,l,363.0
425,213,426,r,r,r,413.0
426,213,427,r,fc,l,449.0
427,213,428,r,l,l,415.0
428,213,429,r,l,l,475.0
429,213,430,l,fc,r,455.0
430,213,431,r,fc,r,475.0
431,213,432,l,fc,r,495.0
432,213,433,r,r,r,371.0
433,213,434,l,l,l,357.0
434,213,435,r,fc,r,405.0
435,213,436,r,fc,r,411.0
436,213,437,r,l,l,449.0
437,213,438,r,r,r,387.0
438,213,439,l,l,l,377.0
439,213,440,r,l,l,416.0
440,213,441,l,r,r,472.0
441,213,442,r,l,l,424.0
442,213,443,l,r,l,377.0
443,213,444,r,fc,r,454.0
444,213,445,r,r,r,405.0
445,213,446,r,l,l,419.0
446,213,447,l,fc,r,447.0
447,213,448,l,fc,r,425.0
448,213,449,r,r,r,423.0
449,213,450,r,fc,l,457.0
450,213,451,r,fc,l,517.0
451,213,452,l,r,r,517.0
452,213,453,l,l,l,349.0
453,213,454,r,l,l,451.0
454,213,455,l,r,l,429.0
455,213,456,l,fc,r,299.0
456,213,457,r,fc,r,447.0
457,213,458,r,r,r,373.0
458,213,459,r,l,l,445.0
459,213,460,l,fc,l,467.0
460,213,461,r,fc,r,473.0
461,213,462,l,fc,r,457.0
462,213,463,l,r,r,517.0
463,213,464,l,r,r,469.0
464,213,465,l,fc,l,559.0
465,213,466,r,fc,l,539.0
466,213,467,r,fc,l,463.0
467,213,468,r,l,l,545.0
468,213,469,l,r,r,475.0
469,213,470,r,fc,r,443.0
470,213,471,l,l,l,300.0
471,213,472,l,fc,l,488.0
472,213,473,r,fc,r,410.0
473,213,474,l,r,r,448.0
474,213,475,r,r,r,386.0
475,213,476,l,l,l,367.0
476,213,477,r,r,r,369.0
477,213,478,l,fc,l,483.0
478,213,479,l,fc,l,441.0
479,213,480,r,r,r,380.0
480,213,481,l,l,l,375.0
481,213,482,l,fc,r,459.0
482,213,483,l,fc,r,459.0
483,213,484,l,fc,l,339.0
484,213,485,r,fc,l,439.0
485,213,486,r,fc,r,391.0
486,213,487,r,r,r,385.0
487,213,488,r,fc,l,487.0
488,213,489,r,fc,l,445.0
489,213,490,l,l,none,
490,213,491,l,fc,l,394.0
491,213,492,r,fc,r,427.0
492,213,493,l,r,r,421.0
493,213,494,l,r,r,412.0
494,213,495,l,fc,l,417.0
495,213,496,l,fc,l,440.0
496,213,497,l,fc,r,409.0
497,213,498,r,fc,r,418.0
498,213,499,l,r,r,487.0
499,213,500,r,l,l,473.0
500,213,501,l,fc,r,489.0
501,213,502,r,r,r,367.0
502,213,503,r,r,r,449.0
503,213,504,l,fc,l,447.0
504,213,505,l,fc,l,413.0
505,213,506,l,l,l,353.0
506,213,507,l,fc,r,480.0
507,213,508,l,fc,r,416.0
508,213,509,r,fc,l,524.0
509,213,510,r,r,r,334.0
510,213,511,r,fc,l,578.0
511,213,512,l,fc,l,470.0
512,213,513,r,r,r,468.0
513,213,514,r,fc,r,366.0
514,213,515,l,fc,l,328.0
515,213,516,l,fc,l,430.0
516,213,517,r,fc,r,428.0
517,213,518,l,fc,r,426.0
518,213,519,l,fc,l,516.0
519,213,520,r,fc,r,388.0
520,213,521,l,fc,l,434.0
521,213,522,l,fc,r,590.0
522,213,523,l,l,l,380.0
523,213,524,l,fc,l,392.0
524,213,525,l,fc,r,510.0
525,213,526,l,r,r,416.0
526,213,527,l,fc,r,440.0
527,213,528,r,fc,r,464.0
528,213,529,l,r,r,513.0
529,213,530,l,l,l,397.0
530,213,531,l,r,r,513.0
531,213,532,l,fc,l,329.0
532,213,533,l,r,r,496.0
533,213,534,l,fc,r,484.0
534,213,535,r,fc,r,436.0
535,213,536,r,l,l,540.0
536,213,537,r,r,r,420.0
537,213,538,l,r,r,516.0
538,213,539,r,fc,l,384.0
539,213,540,r,l,l,438.0
540,213,541,l,fc,l,430.0
541,213,542,r,fc,r,332.0
542,213,543,r,fc,r,436.0
543,213,544,l,r,l,336.0
544,213,545,r,l,l,412.0
545,213,546,l,fc,l,432.0
546,213,547,r,r,r,332.0
547,213,548,r,l,l,506.0
548,213,549,r,r,r,388.0
549,213,550,l,fc,l,482.0
550,213,551,r,l,l,464.0
551,213,552,r,fc,r,466.0
552,213,553,l,r,r,444.0
553,213,554,l,l,l,406.0
554,213,555,l,r,r,460.0
555,213,556,r,fc,l,460.0
556,213,557,l,l,l,384.0
557,213,558,l,r,r,438.0
558,213,559,l,fc,r,478.0
559,213,560,l,fc,r,454.0
560,213,561,r,fc,r,442.0
561,213,562,l,l,l,390.0
562,213,563,r,r,r,439.0
563,213,564,l,r,r,427.0
564,213,565,l,l,l,401.0
565,213,566,r,fc,r,540.0
566,213,567,l,r,r,408.0
567,213,568,r,fc,l,514.0
568,213,569,r,fc,l,471.0
569,213,570,l,l,l,357.0
570,213,571,l,fc,r,536.0
571,213,572,l,l,l,420.0
572,213,573,l,r,r,448.0
573,213,574,l,fc,r,446.0
574,213,575,l,fc,r,464.0
575,213,576,r,fc,l,446.0
576,213,577,r,l,l,460.0
577,213,578,l,l,l,384.0
578,213,579,r,fc,r,430.0
579,213,580,r,r,r,356.0
580,213,581,r,l,r,332.0
581,213,582,l,l,l,344.0
582,213,583,l,r,r,474.0
583,213,584,r,fc,r,446.0
584,213,585,l,l,l,320.0
585,213,586,r,fc,l,444.0
586,213,587,r,fc,l,474.0
587,213,588,r,l,r,330.0
588,213,589,l,fc,l,528.0
589,213,590,r,r,r,377.0
590,213,591,r,l,l,461.0
591,213,592,l,l,l,405.0
592,213,593,l,fc,r,495.0
593,213,594,r,r,r,395.0
594,213,595,l,r,r,459.0
595,213,596,l,l,l,375.0
596,213,597,r,l,l,487.0
597,213,598,l,fc,r,477.0
598,213,599,l,fc,r,509.0
599,213,600,r,fc,l,487.0
600,213,601,r,r,r,429.0
601,213,602,r,l,l,466.0
602,213,603,r,l,l,440.0
603,213,604,l,fc,r,472.0
604,213,605,r,r,r,369.0
605,213,606,r,l,l,455.0
606,213,607,l,l,l,426.0
607,213,608,r,r,r,420.0
608,213,609,r,fc,l,460.0
609,213,610,r,fc,l,472.0
610,213,611,l,l,l,412.0
611,213,612,l,l,l,368.0
612,213,613,r,r,r,526.0
613,213,614,r,fc,l,500.0
614,213,615,l,r,r,480.0
615,213,616,l,fc,r,468.0
616,213,617,r,l,l,442.0
617,213,618,r,r,r,388.0
618,213,619,r,l,l,445.0
619,213,620,r,fc,l,491.0
620,213,621,r,fc,r,437.0
621,213,622,l,fc,r,469.0
622,213,623,r,fc,r,435.0
623,213,624,r,fc,l,447.0
624,213,625,r,fc,l,437.0
625,213,626,l,fc,l,421.0
626,213,627,r,fc,l,541.0
627,213,628,r,fc,l,457.0
628,213,629,n,fc,r,537.0
629,213,630,n,fc,r,416.0
630,213,631,n,fc,l,464.0
631,213,632,n,l,l,374.0
632,213,633,n,l,l,393.0
633,213,634,n,fc,r,385.0
634,213,635,n,r,r,439.0
635,213,636,n,l,r,371.0
636,213,637,n,fc,l,455.0
637,213,638,n,fc,l,379.0
638,213,639,n,l,l,511.0
639,213,640,n,fc,l,421.0
640,213,641,n,fc,r,575.0
641,213,642,n,fc,r,419.0
642,213,643,n,r,r,419.0
643,213,644,n,l,l,471.0
644,213,645,n,fc,l,429.0
645,213,646,n,l,l,427.0
646,213,647,n,r,r,497.0
647,213,648,n,fc,r,485.0
648,213,649,n,l,l,391.0
649,213,650,n,fc,l,419.0
650,213,651,n,l,l,487.0
651,213,652,n,r,r,425.0
652,213,653,n,fc,r,527.0
653,213,654,n,fc,r,441.0
654,213,655,n,l,l,417.0
655,213,656,n,fc,l,437.0
656,213,657,n,fc,r,497.0
657,213,658,n,fc,r,437.0
658,213,659,n,l,l,349.0
659,213,660,n,r,r,499.0
660,213,661,n,fc,l,421.0
661,213,662,n,l,l,427.0
662,213,663,n,fc,l,445.0
663,213,664,n,l,l,503.0
664,213,665,n,r,r,490.0
665,213,666,n,fc,l,479.0
666,213,667,n,l,l,387.0
667,213,668,n,l,l,405.0
668,213,669,n,r,r,479.0
669,213,670,n,l,l,475.0
670,213,671,n,r,none,
671,213,672,n,fc,none,
672,213,673,n,fc,r,255.0
673,213,674,n,r,r,423.0
674,213,675,n,l,l,501.0
675,213,676,n,fc,l,445.0
676,213,677,n,l,l,395.0
677,213,678,n,fc,r,431.0
678,213,679,n,fc,r,413.0
679,213,680,n,r,r,441.0
680,213,681,n,fc,r,469.0
681,213,682,n,r,r,527.0
682,213,683,n,l,l,441.0
683,213,684,n,r,r,437.0
684,213,685,n,fc,r,457.0
685,213,686,n,fc,r,417.0
686,213,687,n,fc,l,485.0
687,213,688,n,fc,l,411.0
688,213,689,n,fc,l,372.0
689,213,690,n,l,l,410.0
690,213,691,n,fc,l,392.0
691,213,692,n,fc,l,390.0
692,213,693,n,fc,r,495.0
693,213,694,n,fc,r,360.0
694,213,695,n,r,r,396.0
695,213,696,n,fc,r,376.0
696,213,697,n,l,l,456.0
697,213,698,n,l,l,360.0
698,213,699,n,fc,r,447.0
699,213,700,n,r,r,461.0
700,213,701,n,r,r,409.0
701,213,702,n,l,l,412.0
702,213,703,n,r,r,451.0
703,213,704,n,r,r,465.0
704,213,705,n,l,l,443.0
705,213,706,n,fc,r,485.0
706,213,707,n,fc,r,463.0
707,213,708,n,fc,r,409.0
708,213,709,n,fc,l,387.0
709,213,710,n,fc,l,365.0
710,213,711,n,fc,l,391.0
711,213,712,n,r,r,535.0
712,213,713,n,fc,r,419.0
713,213,714,n,r,r,351.0
714,213,715,n,l,l,461.0
715,213,716,n,r,r,545.0
716,213,717,n,fc,r,447.0
717,213,718,n,fc,r,364.0
718,213,719,n,fc,r,430.0
719,213,720,n,r,r,404.0
720,213,721,n,l,l,470.0
721,213,722,n,r,r,496.0
722,213,723,n,l,l,476.0
723,213,724,n,r,r,372.0
724,213,725,n,r,r,338.0
725,213,726,n,fc,r,422.0
726,213,727,n,l,l,544.0
727,213,728,n,r,r,386.0
728,213,729,n,r,r,496.0
729,213,730,n,fc,r,456.0
730,213,731,n,l,l,428.0
731,213,732,n,fc,l,422.0
732,213,733,n,r,r,380.0
733,213,734,n,fc,r,428.0
734,213,735,n,r,r,429.0
735,213,736,n,fc,r,443.0
736,213,737,n,fc,r,481.0
737,213,738,n,fc,l,433.0
738,213,739,n,fc,l,450.0
739,213,740,n,l,l,379.0
740,213,741,n,r,r,459.0
741,213,742,n,fc,r,423.0
742,213,743,n,fc,r,373.0
743,213,744,n,l,l,381.0
744,213,745,n,fc,l,348.0
745,213,746,n,r,r,439.0
746,213,747,n,fc,r,454.0
747,213,748,n,fc,r,390.0
748,213,749,n,r,r,480.0
749,213,750,n,fc,l,472.0
750,213,751,n,fc,l,474.0
751,213,752,n,r,r,490.0
752,213,753,n,fc,l,523.0
753,213,754,n,l,l,373.0
754,213,755,n,fc,r,465.0
755,213,756,n,fc,r,386.0
756,213,757,n,r,r,353.0
757,213,758,n,l,l,404.0
758,213,759,n,r,r,478.0
759,213,760,n,fc,r,450.0
760,213,761,n,l,l,356.0
761,213,762,n,fc,l,420.0
762,213,763,n,r,r,348.0
763,213,764,n,l,l,398.0
764,213,765,n,fc,l,458.0
765,213,766,n,fc,r,374.0
766,213,767,n,r,r,498.0
767,213,768,n,l,l,210.0
768,213,769,n,fc,r,300.0
769,213,770,n,fc,r,368.0
770,213,771,n,l,l,530.0
771,213,772,n,r,r,416.0
772,213,773,n,fc,r,408.0
773,213,774,n,fc,l,402.0
774,213,775,n,l,l,368.0
775,213,776,n,l,l,414.0
776,213,777,n,fc,l,334.0
777,213,778,n,r,r,466.0
778,213,779,n,l,r,336.0
779,213,780,n,r,r,388.0
780,213,781,n,fc,l,410.0
781,213,782,n,fc,l,340.0
782,213,783,n,r,r,412.0
783,213,784,n,l,l,352.0
784,213,785,n,fc,l,477.0
785,213,786,n,fc,r,389.0
786,213,787,n,l,l,391.0
787,213,788,n,fc,l,449.0
788,213,789,n,fc,r,351.0
789,213,790,n,r,r,369.0
790,213,791,n,fc,r,362.0
791,213,792,n,l,l,332.0
792,213,793,n,l,l,372.0
793,213,794,n,r,r,433.0
794,213,795,n,l,r,357.0
795,213,796,n,fc,l,368.0
796,213,797,n,fc,l,338.0
797,213,798,n,fc,l,370.0
798,213,799,n,fc,l,432.0
799,213,800,n,fc,l,400.0
800,213,801,n,fc,r,508.0
801,213,802,n,l,l,530.0
802,213,803,n,fc,l,476.0
803,213,804,n,r,r,400.0
804,213,805,n,fc,r,424.0
805,213,806,n,fc,r,394.0
806,213,807,n,fc,r,394.0
807,213,808,n,l,l,442.0
808,213,809,n,l,l,348.0
809,213,810,n,fc,l,430.0
810,213,811,n,fc,l,412.0
811,213,812,n,r,r,423.0
812,213,813,n,l,l,417.0
813,213,814,n,r,r,349.0
814,213,815,n,l,l,391.0
815,213,816,n,fc,l,357.0
816,213,817,n,r,r,361.0
817,213,818,n,r,r,365.0
818,213,819,n,fc,l,443.0
819,213,820,n,l,r,413.0
820,213,821,n,r,r,489.0
821,213,822,n,fc,r,459.0
822,213,823,n,fc,r,443.0
823,213,824,n,fc,l,413.0
824,213,825,n,r,r,525.0
825,213,826,n,l,l,446.0
826,213,827,n,fc,l,476.0
827,213,828,n,fc,l,376.0
828,213,829,n,r,r,372.0
829,213,830,n,r,r,419.0
830,213,831,n,fc,r,511.0
831,213,832,n,fc,r,460.0
832,213,833,n,l,l,296.0
833,213,834,n,r,r,468.0
834,213,835,n,r,r,398.0
835,213,836,n,fc,r,402.0
836,213,837,n,fc,r,440.0
837,213,838,n,fc,l,420.0
838,213,839,n,l,l,436.0
839,213,840,n,fc,l,407.0
840,213,841,n,r,r,473.0
841,213,842,n,r,r,405.0
842,213,843,n,fc,r,431.0
843,213,844,n,l,l,355.0
844,213,845,n,fc,r,419.0
845,213,846,n,fc,l,379.0
846,213,847,n,l,l,411.0
847,213,848,n,fc,l,379.0
848,213,849,n,fc,l,447.0
849,213,850,n,r,r,377.0
850,213,851,n,l,l,493.0
851,213,852,n,fc,l,369.0
852,213,853,n,fc,r,403.0
853,213,854,n,l,l,401.0
854,213,855,n,fc,l,409.0
855,213,856,n,r,r,371.0
856,213,857,n,fc,r,357.0
857,213,858,n,fc,l,293.0
858,213,859,n,fc,l,329.0
859,213,860,n,fc,l,375.0
860,213,861,n,r,r,327.0
861,213,862,n,fc,l,477.0
862,213,863,n,l,l,441.0
863,213,864,n,l,l,348.0
864,213,865,n,r,r,446.0
865,213,866,n,fc,r,452.0
866,213,867,n,r,l,388.0
867,213,868,n,l,l,345.0
868,213,869,n,fc,r,408.0
869,213,870,n,l,l,423.0
870,213,871,n,fc,l,429.0
871,213,872,n,l,l,395.0
872,213,873,n,r,r,487.0
873,213,874,n,l,l,457.0
874,213,875,n,r,r,485.0
875,213,876,n,fc,r,487.0
876,213,877,n,r,r,421.0
877,213,878,n,fc,r,425.0
878,213,879,n,fc,l,375.0
879,213,880,n,fc,l,419.0
880,213,881,n,fc,l,401.0
881,213,882,n,fc,l,412.0
882,213,883,n,fc,l,380.0
883,213,884,n,fc,l,340.0
884,213,885,n,fc,l,507.0
885,213,886,n,l,r,445.0
886,213,887,n,fc,l,471.0
887,213,888,n,fc,r,374.0
888,213,889,n,r,r,421.0
889,213,890,n,l,l,475.0
890,213,891,n,r,r,479.0
891,213,892,n,r,r,411.0
892,213,893,n,l,l,447.0
893,213,894,n,r,r,413.0
894,213,895,n,l,l,389.0
895,213,896,n,l,l,431.0
896,213,897,n,r,r,477.0
897,213,898,n,l,l,377.0
898,213,899,n,fc,l,473.0
899,213,900,n,l,l,489.0
900,213,901,n,r,r,495.0
901,213,902,n,r,r,435.0
902,213,903,n,l,l,407.0
903,213,904,n,fc,l,501.0
904,213,905,n,fc,r,389.0
905,213,906,n,r,r,383.0
906,213,907,n,fc,r,471.0
907,213,908,n,fc,r,393.0
908,213,909,n,l,l,442.0
909,213,910,n,fc,l,428.0
910,213,911,n,r,r,406.0
911,213,912,n,l,l,488.0
912,213,913,n,fc,r,458.0
913,213,914,n,fc,r,406.0
914,213,915,n,r,r,472.0
915,213,916,n,fc,l,448.0
916,213,917,n,l,l,402.0
917,213,918,n,r,r,544.0
918,213,919,n,fc,r,450.0
919,213,920,n,r,r,536.0
920,213,921,n,fc,r,471.0
921,213,922,n,l,l,417.0
922,213,923,n,fc,l,405.0
923,213,924,n,r,r,459.0
924,213,925,n,fc,r,472.0
925,213,926,n,fc,l,497.0
926,213,927,n,fc,l,521.0
927,213,928,n,fc,l,429.0
928,213,929,n,fc,l,411.0
929,213,930,n,r,r,473.0
930,213,931,n,fc,r,437.0
931,213,932,n,l,l,425.0
932,213,933,n,r,r,399.0
933,213,934,n,fc,r,423.0
934,213,935,n,r,r,389.0
935,213,936,n,l,l,407.0
936,213,937,n,fc,l,448.0
937,213,938,n,fc,l,418.0
938,213,939,n,r,r,470.0
939,213,940,n,fc,r,424.0
940,213,941,n,r,r,386.0
941,213,942,n,fc,r,431.0
942,213,943,n,l,l,416.0
943,213,944,n,l,l,388.0
944,213,945,n,r,r,526.0
945,213,946,n,l,l,284.0
946,213,947,n,l,l,458.0
947,213,948,n,r,r,418.0
948,213,949,n,fc,r,474.0
949,213,950,n,fc,l,382.0
950,213,951,n,l,l,386.0
951,213,952,n,l,l,396.0
952,213,953,n,fc,l,472.0
953,213,954,n,fc,l,466.0
954,213,955,n,fc,r,344.0
955,213,956,n,fc,r,398.0
956,213,957,n,r,r,382.0
957,213,958,n,l,l,449.0
958,213,959,n,r,r,495.0
959,213,960,n,fc,r,423.0
960,213,961,n,fc,r,418.0
961,213,962,n,fc,r,394.0
962,213,963,n,fc,r,369.0
963,213,964,n,fc,r,363.0
964,213,965,n,fc,l,424.0
965,213,966,n,r,r,474.0
966,213,967,n,fc,r,446.0
967,213,968,n,l,l,400.0
968,213,969,n,r,r,484.0
969,213,970,n,r,r,386.0
970,213,971,n,fc,r,472.0
971,213,972,n,l,l,436.0
972,213,973,n,fc,l,384.0
973,213,974,n,fc,l,422.0
974,213,975,n,fc,r,424.0
975,213,976,n,r,r,354.0
976,213,977,n,l,l,438.0
977,213,978,n,fc,r,478.0
978,213,979,n,l,l,418.0
979,213,980,n,r,r,390.0
980,213,981,n,l,l,396.0
981,213,982,n,fc,r,484.0
982,213,983,n,fc,r,458.0
983,213,984,n,fc,r,550.0
984,213,985,n,fc,r,416.0
985,213,986,n,l,l,436.0
986,213,987,n,fc,l,432.0
987,213,988,n,fc,r,516.0
988,213,989,r,,none,
989,213,990,r,,none,
990,213,991,r,,none,
991,213,992,r,,none,
992,213,993,r,,none,
993,213,994,r,,none,
994,213,995,l,,none,
995,213,996,l,,none,
996,213,997,l,,none,
997,213,998,r,,none,
998,213,999,l,,none,
999,213,1000,r,,none,
1000,213,1001,r,,none,
1001,213,1002,r,,none,
1002,213,1003,l,,none,
1003,213,1004,l,,none,
1004,213,1005,l,,none,
1005,213,1006,l,,none,
1006,213,1007,l,,none,
1007,213,1008,r,,none,
1008,213,1009,r,,none,
1009,213,1010,l,,none,
1010,213,1011,l,,none,
1011,213,1012,r,,none,
1012,213,1013,r,,none,
1013,213,1014,r,,none,
1014,213,1015,l,,none,
1015,213,1016,l,,none,
1016,213,1017,l,,none,
1017,213,1018,r,,none,
1018,213,1019,r,,none,
1019,213,1020,l,,none,
1020,213,1021,r,,none,
1021,213,1022,r,,none,
1022,213,1023,r,,none,
1023,213,1024,r,,none,
1024,213,1025,r,,none,
1025,213,1026,r,,none,
1026,213,1027,l,,none,
1027,213,1028,l,,none,
1028,213,1029,l,,none,
