,Subject,Trial,Prime,Cue,isCorrect,RT
1,101,2,left,right,True,479.0
3,101,4,right,left,True,383.0
4,101,5,left,right,True,423.0
5,101,6,left,right,True,413.0
6,101,7,right,left,True,409.0
7,101,8,right,right,True,343.0
8,101,9,left,right,True,383.0
9,101,10,left,left,True,399.0
10,101,11,right,right,True,339.0
11,101,12,right,left,True,427.0
12,101,13,left,left,True,453.0
13,101,14,right,right,True,427.0
14,101,15,right,left,True,456.0
15,101,16,left,left,True,336.0
16,101,17,right,right,True,452.0
17,101,18,left,left,True,381.0
18,101,19,left,left,True,398.0
19,101,20,left,free choice,False,566.0
20,101,21,right,free choice,True,736.0
21,101,22,left,right,True,492.0
22,101,23,right,free choice,False,550.0
23,101,24,left,free choice,True,596.0
24,101,25,left,free choice,True,628.0
25,101,26,left,free choice,True,606.0
26,101,27,left,right,True,472.0
27,101,28,right,left,True,398.0
28,101,29,left,right,True,434.0
29,101,30,right,right,True,422.0
30,101,31,left,left,True,382.0
31,101,32,right,free choice,False,602.0
32,101,33,left,free choice,True,614.0
33,101,34,right,right,True,400.0
34,101,35,right,left,True,451.0
35,101,36,right,left,True,421.0
36,101,37,left,right,True,481.0
37,101,38,right,free choice,False,565.0
38,101,39,right,free choice,True,623.0
39,101,40,right,right,True,559.0
40,101,41,right,left,True,479.0
41,101,42,left,free choice,True,531.0
42,101,43,left,free choice,False,493.0
43,101,44,right,free choice,True,547.0
44,101,45,right,free choice,True,536.0
45,101,46,left,free choice,True,488.0
46,101,47,right,free choice,False,486.0
47,101,48,left,left,True,528.0
48,101,49,right,left,True,414.0
49,101,50,right,right,True,373.0
50,101,51,left,left,True,376.0
51,101,52,left,right,True,476.0
52,101,53,right,right,True,428.0
53,101,54,left,right,True,474.0
54,101,55,left,left,True,422.0
55,101,56,right,left,True,482.0
56,101,57,right,right,True,458.0
58,101,59,left,left,True,410.0
59,101,60,right,left,True,496.0
60,101,61,left,left,True,472.0
61,101,62,right,left,True,450.0
62,101,63,left,left,True,536.0
63,101,64,left,left,True,436.0
64,101,65,right,left,True,428.0
65,101,66,right,left,True,481.0
66,101,67,right,right,True,529.0
67,101,68,right,right,True,479.0
68,101,69,left,right,True,391.0
69,101,70,right,left,True,437.0
70,101,71,right,right,True,485.0
71,101,72,left,left,True,411.0
72,101,73,right,right,True,445.0
73,101,74,left,left,True,374.0
74,101,75,left,left,True,463.0
75,101,76,right,left,True,423.0
76,101,77,right,right,True,447.0
77,101,78,left,left,True,385.0
78,101,79,right,left,True,445.0
79,101,80,left,right,True,475.0
80,101,81,left,left,True,403.0
81,101,82,right,left,True,427.0
82,101,83,left,left,True,341.0
83,101,84,right,right,True,433.0
84,101,85,right,right,True,443.0
85,101,86,right,right,True,495.0
86,101,87,right,right,True,486.0
87,101,88,left,right,True,444.0
88,101,89,left,right,True,466.0
89,101,90,left,left,True,399.0
90,101,91,right,left,True,403.0
91,101,92,left,right,True,405.0
92,101,93,right,left,True,468.0
93,101,94,left,right,True,418.0
94,101,95,right,left,True,429.0
95,101,96,right,right,True,351.0
96,101,97,left,right,True,445.0
97,101,98,left,right,True,435.0
98,101,99,left,left,True,387.0
99,101,100,right,left,True,413.0
100,101,101,left,right,True,397.0
101,101,102,right,right,True,425.0
102,101,103,left,right,True,375.0
103,101,104,left,right,True,415.0
104,101,105,left,right,True,451.0
105,101,106,right,left,True,477.0
106,101,107,right,right,True,461.0
107,101,108,left,left,True,413.0
108,101,109,left,left,True,437.0
109,101,110,right,left,True,472.0
110,101,111,left,right,True,387.0
111,101,112,left,free choice,False,552.0
112,101,113,right,left,True,446.0
113,101,114,right,left,True,364.0
114,101,115,right,free choice,True,584.0
115,101,116,left,right,True,426.0
116,101,117,right,free choice,False,468.0
117,101,118,right,left,True,418.0
118,101,119,left,right,True,490.0
119,101,120,left,left,True,392.0
120,101,121,left,free choice,False,522.0
121,101,122,left,free choice,True,474.0
122,101,123,right,free choice,True,498.0
123,101,124,right,left,True,422.0
124,101,125,right,right,True,422.0
125,101,126,right,free choice,False,502.0
126,101,127,left,free choice,False,674.0
127,101,128,right,left,True,444.0
128,101,129,right,free choice,True,466.0
129,101,130,left,left,True,396.0
130,101,131,left,right,True,424.0
131,101,132,right,free choice,False,398.0
132,101,133,right,free choice,True,510.0
133,101,134,left,free choice,True,496.0
134,101,135,left,left,True,511.0
135,101,136,left,right,True,424.0
136,101,137,left,left,True,446.0
137,101,138,right,free choice,True,440.0
138,101,139,left,right,False,384.0
139,101,140,left,free choice,False,562.0
140,101,141,left,right,True,503.0
141,101,142,left,free choice,True,595.0
142,101,143,right,left,True,530.0
143,101,144,right,free choice,True,536.0
144,101,145,right,right,True,480.0
145,101,146,right,right,True,440.0
146,101,147,right,left,True,468.0
147,101,148,left,free choice,False,474.0
148,101,149,left,right,True,490.0
149,101,150,right,right,True,436.0
150,101,151,left,free choice,True,436.0
151,101,152,right,free choice,False,536.0
152,101,153,left,left,True,540.0
153,101,154,right,free choice,True,524.0
154,101,155,right,free choice,True,632.0
155,101,156,right,right,True,486.0
156,101,157,left,free choice,True,471.0
157,101,158,left,right,True,505.0
158,101,159,left,left,True,427.0
159,101,160,left,free choice,False,625.0
160,101,161,right,free choice,False,527.0
161,101,162,right,free choice,True,561.0
162,101,163,right,free choice,False,557.0
163,101,164,right,right,True,513.0
164,101,165,left,free choice,True,523.0
165,101,166,right,free choice,True,659.0
166,101,167,right,free choice,False,671.0
167,101,168,right,right,True,517.0
168,101,169,right,free choice,False,645.0
170,101,171,right,free choice,True,491.0
171,101,172,right,right,True,533.0
172,101,173,left,right,True,467.0
173,101,174,left,left,True,461.0
174,101,175,left,free choice,False,505.0
175,101,176,left,free choice,True,439.0
176,101,177,right,right,True,419.0
178,101,179,left,free choice,True,418.0
179,101,180,right,right,True,382.0
180,101,181,left,free choice,True,422.0
181,101,182,right,free choice,True,418.0
182,101,183,left,free choice,True,418.0
183,101,184,left,left,True,502.0
184,101,185,left,right,True,381.0
186,101,187,right,right,True,417.0
187,101,188,right,free choice,False,405.0
188,101,189,left,free choice,False,411.0
189,101,190,left,free choice,True,341.0
190,101,191,right,right,True,370.0
191,101,192,right,free choice,False,412.0
192,101,193,left,left,True,493.0
193,101,194,left,free choice,False,355.0
194,101,195,left,free choice,True,447.0
195,101,196,right,free choice,True,325.0
196,101,197,right,right,True,359.0
197,101,198,right,free choice,False,383.0
198,101,199,right,free choice,True,351.0
199,101,200,right,left,True,409.0
200,101,201,right,free choice,True,307.0
201,101,202,left,free choice,False,460.0
202,101,203,right,left,True,368.0
203,101,204,right,free choice,True,322.0
204,101,205,left,right,True,414.0
205,101,206,right,left,True,446.0
206,101,207,left,free choice,False,432.0
207,101,208,left,right,True,394.0
208,101,209,right,left,True,356.0
209,101,210,right,left,True,452.0
210,101,211,left,free choice,False,422.0
211,101,212,left,free choice,True,406.0
212,101,213,left,free choice,False,452.0
213,101,214,left,free choice,True,482.0
214,101,215,right,free choice,True,398.0
215,101,216,left,right,True,434.0
216,101,217,right,free choice,False,414.0
217,101,218,left,left,True,422.0
218,101,219,left,left,True,462.0
219,101,220,right,right,True,426.0
220,101,221,left,left,True,412.0
221,101,222,left,free choice,False,421.0
222,101,223,left,left,True,401.0
223,101,224,right,free choice,True,425.0
224,101,225,right,right,True,430.0
225,101,226,left,free choice,True,472.0
226,101,227,left,left,True,414.0
227,101,228,left,right,True,382.0
228,101,229,right,free choice,True,522.0
229,101,230,right,right,True,415.0
230,101,231,right,right,True,391.0
231,101,232,left,left,True,405.0
232,101,233,left,right,True,430.0
233,101,234,left,free choice,True,616.0
234,101,235,right,left,True,444.0
235,101,236,right,free choice,True,390.0
236,101,237,left,left,True,364.0
237,101,238,left,free choice,False,381.0
238,101,239,left,right,True,421.0
239,101,240,right,left,True,400.0
240,101,241,left,left,True,428.0
241,101,242,left,right,True,366.0
242,101,243,right,left,True,340.0
243,101,244,right,left,True,488.0
244,101,245,left,free choice,False,401.0
245,101,246,left,free choice,False,485.0
246,101,247,right,right,True,431.0
247,101,248,left,free choice,True,509.0
248,101,249,right,left,True,439.0
249,101,250,right,right,True,379.0
250,101,251,left,free choice,True,475.0
251,101,252,left,free choice,False,403.0
252,101,253,right,left,True,385.0
253,101,254,right,free choice,True,431.0
254,101,255,right,free choice,False,473.0
255,101,256,right,free choice,True,347.0
256,101,257,right,left,True,413.0
257,101,258,right,free choice,True,443.0
258,101,259,left,free choice,True,507.0
259,101,260,right,right,True,389.0
260,101,261,right,free choice,False,375.0
261,101,262,right,free choice,True,443.0
262,101,263,right,left,True,387.0
263,101,264,right,right,True,369.0
264,101,265,right,free choice,False,423.0
265,101,266,left,right,True,371.0
266,101,267,left,left,True,509.0
267,101,268,right,free choice,True,358.0
268,101,269,left,free choice,False,610.0
269,101,270,left,right,True,428.0
270,101,271,right,free choice,False,478.0
271,101,272,right,free choice,True,482.0
272,101,273,right,free choice,False,422.0
273,101,274,right,left,True,466.0
274,101,275,right,free choice,True,420.0
275,101,276,left,right,True,400.0
276,101,277,left,right,True,436.0
277,101,278,right,left,True,448.0
278,101,279,right,free choice,True,470.0
279,101,280,left,free choice,True,460.0
280,101,281,left,right,True,364.0
281,101,282,left,left,True,424.0
282,101,283,left,free choice,False,474.0
283,101,284,left,right,True,448.0
284,101,285,right,free choice,True,513.0
285,101,286,right,right,True,375.0
286,101,287,left,free choice,True,451.0
287,101,288,right,free choice,True,481.0
288,101,289,left,left,True,374.0
289,101,290,left,right,True,371.0
290,101,291,left,free choice,True,492.0
291,101,292,right,right,True,386.0
292,101,293,left,free choice,True,384.0
293,101,294,left,left,True,500.0
294,101,295,left,free choice,False,444.0
295,101,296,left,free choice,True,570.0
296,101,297,right,left,True,476.0
297,101,298,left,free choice,False,424.0
298,101,299,right,right,True,418.0
299,101,300,left,left,True,442.0
300,101,301,left,free choice,False,450.0
301,101,302,left,free choice,True,376.0
302,101,303,right,free choice,True,484.0
303,101,304,left,free choice,True,562.0
304,101,305,right,right,True,426.0
305,101,306,left,right,True,468.0
306,101,307,right,free choice,True,570.0
307,101,308,right,left,True,476.0
308,101,309,left,free choice,False,488.0
309,101,310,left,right,True,454.0
310,101,311,right,free choice,False,462.0
311,101,312,right,right,True,402.0
312,101,313,right,free choice,False,469.0
313,101,314,left,left,True,495.0
314,101,315,right,free choice,True,499.0
315,101,316,right,right,True,411.0
316,101,317,right,free choice,True,469.0
317,101,318,right,free choice,True,447.0
318,101,319,left,left,True,473.0
319,101,320,right,right,True,471.0
320,101,321,right,free choice,False,673.0
321,101,322,left,free choice,False,463.0
322,101,323,right,free choice,False,543.0
323,101,324,right,free choice,True,511.0
324,101,325,left,free choice,True,441.0
325,101,326,left,left,True,521.0
326,101,327,left,right,True,429.0
327,101,328,left,free choice,True,511.0
328,101,329,left,free choice,False,521.0
329,101,330,left,free choice,False,741.0
330,101,331,right,free choice,True,493.0
331,101,332,left,left,True,427.0
332,101,333,right,right,True,397.0
333,101,334,right,left,True,469.0
334,101,335,left,left,True,466.0
335,101,336,right,right,True,447.0
336,101,337,left,free choice,True,529.0
337,101,338,left,right,True,455.0
338,101,339,right,free choice,False,455.0
339,101,340,left,left,True,500.0
340,101,341,right,left,True,512.0
341,101,342,left,free choice,False,461.0
342,101,343,left,free choice,True,545.0
343,101,344,left,free choice,False,495.0
344,101,345,left,right,True,539.0
345,101,346,right,left,True,463.0
346,101,347,left,left,True,459.0
347,101,348,right,free choice,True,459.0
348,101,349,neutral,free choice,True,545.0
349,101,350,neutral,free choice,False,656.0
350,101,351,left,left,True,456.0
351,101,352,neutral,free choice,True,460.0
352,101,353,neutral,free choice,False,612.0
353,101,354,left,right,True,454.0
354,101,355,left,right,True,486.0
355,101,356,left,left,True,544.0
356,101,357,right,left,True,408.0
357,101,358,neutral,free choice,True,514.0
358,101,359,neutral,free choice,True,520.0
359,101,360,neutral,free choice,False,476.0
360,101,361,neutral,free choice,True,452.0
361,101,362,right,right,True,494.0
362,101,363,neutral,free choice,False,424.0
363,101,364,neutral,free choice,True,406.0
364,101,365,neutral,free choice,False,500.0
365,101,366,left,left,True,476.0
366,101,367,right,left,True,544.0
367,101,368,right,right,True,460.0
368,101,369,neutral,free choice,False,424.0
369,101,370,right,left,True,470.0
370,101,371,neutral,free choice,True,508.0
371,101,372,neutral,free choice,False,462.0
372,101,373,neutral,free choice,True,429.0
373,101,374,right,left,True,379.0
374,101,375,neutral,free choice,True,438.0
375,101,376,left,right,True,498.0
376,101,377,neutral,free choice,False,394.0
377,101,378,neutral,free choice,True,392.0
378,101,379,right,right,True,446.0
379,101,380,left,left,True,388.0
380,101,381,neutral,free choice,True,478.0
381,101,382,neutral,free choice,False,443.0
382,101,383,neutral,free choice,True,386.0
383,101,384,left,left,True,412.0
384,101,385,neutral,free choice,True,466.0
385,101,386,neutral,free choice,False,384.0
386,101,387,right,right,True,448.0
387,101,388,neutral,free choice,False,426.0
388,101,389,neutral,free choice,True,440.0
389,101,390,neutral,free choice,False,492.0
390,101,391,left,left,True,490.0
391,101,392,left,left,True,480.0
392,101,393,left,right,True,460.0
393,101,394,neutral,free choice,False,436.0
394,101,395,right,right,True,416.0
395,101,396,neutral,free choice,False,423.0
396,101,397,right,left,True,529.0
397,101,398,neutral,free choice,True,499.0
398,101,399,neutral,free choice,False,475.0
399,101,400,right,right,True,415.0
400,101,401,neutral,free choice,False,431.0
401,101,402,left,right,True,433.0
402,101,403,neutral,free choice,False,419.0
403,101,404,right,left,True,499.0
404,101,405,neutral,free choice,True,455.0
405,101,406,left,right,True,483.0
406,101,407,left,left,True,383.0
407,101,408,neutral,free choice,True,403.0
408,101,409,neutral,free choice,False,363.0
409,101,410,right,right,True,387.0
410,101,411,right,left,True,461.0
411,101,412,right,right,True,393.0
412,101,413,right,left,True,467.0
413,101,414,neutral,free choice,True,465.0
414,101,415,right,left,True,391.0
415,101,416,left,right,True,369.0
416,101,417,neutral,free choice,False,499.0
417,101,418,left,right,True,399.0
418,101,419,neutral,free choice,False,467.0
419,101,420,left,left,True,480.0
420,101,421,neutral,free choice,True,524.0
421,101,422,right,left,True,428.0
422,101,423,left,right,True,470.0
423,101,424,neutral,free choice,False,436.0
424,101,425,right,left,True,472.0
425,101,426,left,left,True,490.0
426,101,427,neutral,free choice,True,460.0
427,101,428,right,right,True,483.0
428,101,429,left,left,True,423.0
429,101,430,left,right,True,529.0
430,101,431,neutral,free choice,False,443.0
431,101,432,left,right,True,501.0
432,101,433,neutral,free choice,False,525.0
433,101,434,right,left,True,552.0
434,101,435,neutral,free choice,True,573.0
435,101,436,neutral,free choice,False,501.0
436,101,437,right,right,True,465.0
437,101,438,neutral,free choice,False,499.0
438,101,439,left,left,True,567.0
439,101,440,neutral,free choice,True,517.0
440,101,441,right,left,True,413.0
441,101,442,neutral,free choice,True,459.0
442,101,443,left,right,True,418.0
443,101,444,neutral,free choice,False,434.0
444,101,445,right,left,True,442.0
445,101,446,neutral,free choice,True,382.0
446,101,447,left,left,True,362.0
447,101,448,neutral,free choice,True,454.0
448,101,449,neutral,free choice,False,406.0
449,101,450,neutral,free choice,True,436.0
450,101,451,left,right,True,536.0
451,101,452,left,right,True,560.0
452,101,453,left,left,True,480.0
453,101,454,right,right,True,464.0
454,101,455,right,right,True,442.0
455,101,456,left,left,True,426.0
456,101,457,neutral,free choice,True,548.0
457,101,458,neutral,free choice,False,458.0
458,101,459,neutral,free choice,True,406.0
459,101,460,neutral,free choice,False,412.0
460,101,461,neutral,free choice,True,434.0
461,101,462,left,right,True,474.0
462,101,463,right,right,True,468.0
463,101,464,right,left,True,426.0
464,101,465,right,right,True,452.0
465,101,466,neutral,free choice,False,493.0
466,101,467,neutral,free choice,True,411.0
467,101,468,right,right,True,465.0
468,101,469,right,,False,4367.0
469,101,470,right,,True,2583.0
470,101,471,left,,True,2355.0
471,101,472,right,,True,1785.0
472,101,473,left,,True,1713.0
473,101,474,right,,True,2246.0
474,101,475,right,,True,1850.0
475,101,476,left,,False,1484.0
476,101,477,right,,True,1251.0
477,101,478,left,,True,3721.0
478,101,479,left,,True,1741.0
479,101,480,right,,False,2333.0
480,101,481,right,,True,1903.0
481,101,482,left,,True,1574.0
482,101,483,left,,False,1868.0
483,101,484,left,,False,2218.0
484,101,485,left,,True,1698.0
485,101,486,right,,False,2382.0
486,101,487,left,,False,4666.0
487,101,488,right,,True,3766.0
488,101,489,right,,True,3646.0
489,101,490,left,,True,3653.0
490,101,491,right,,True,2939.0
491,101,492,right,,True,2847.0
492,101,493,left,,True,3163.0
493,101,494,right,,True,2742.0
494,101,495,right,,False,2494.0
495,101,496,right,,False,4920.0
496,101,497,left,,False,1195.0
497,101,498,right,,False,2577.0
498,101,499,right,,True,4691.0
499,101,500,right,,True,3833.0
500,101,501,right,,False,1615.0
501,101,502,left,,False,4169.0
502,101,503,left,,True,1999.0
503,101,504,right,,False,2322.0
504,101,505,right,,False,2790.0
505,101,506,right,,True,2764.0
506,101,507,left,,True,3820.0
507,101,508,left,,True,2432.0
508,101,509,right,,False,5402.0
509,101,510,left,,False,4844.0
510,101,511,left,,True,1708.0
511,101,512,left,,True,1650.0
512,101,513,left,,True,2044.0
513,101,514,left,,False,1948.0
514,101,515,left,,True,1390.0
515,101,516,right,,True,1976.0
516,101,517,left,,True,1890.0
517,101,518,right,,True,1832.0
518,101,519,left,,True,1877.0
519,101,520,right,,False,1851.0
520,101,521,right,,False,1745.0
521,101,522,right,,True,1269.0
522,101,523,left,,True,1823.0
523,101,524,right,,False,3391.0
524,101,525,left,,False,2321.0
525,101,526,left,,True,1132.0
526,101,527,left,,True,1289.0
527,101,528,left,,True,1511.0
528,101,529,left,,False,1225.0
529,101,530,right,,False,4745.0
530,101,531,right,,False,1517.0
531,101,532,left,,False,4379.0
532,101,533,right,,False,1931.0
533,101,534,right,,True,3400.0
534,101,535,right,,False,3048.0
535,101,536,right,,True,1394.0
536,101,537,right,,True,1516.0
537,101,538,left,,True,1910.0
538,101,539,right,,True,4672.0
539,101,540,left,,False,2614.0
540,101,541,right,,True,2120.0
541,101,542,left,,True,1263.0
542,101,543,right,,False,1831.0
543,101,544,right,,True,1548.0
544,101,545,right,,True,2354.0
545,101,546,right,,False,2756.0
546,101,547,left,,True,1558.0
547,101,548,right,,True,2586.0
548,101,549,left,,False,2234.0
549,101,550,left,,True,1611.0
550,101,551,left,,False,1369.0
551,101,552,left,,True,3131.0
552,101,553,right,,True,1921.0
553,101,554,left,,False,1853.0
554,101,555,left,,True,1339.0
555,101,556,left,,False,3111.0
556,101,557,left,,False,1189.0
557,101,558,left,,True,1950.0
1,102,2,right,left,True,563.0
2,102,3,left,right,True,484.0
3,102,4,left,right,True,486.0
4,102,5,left,left,True,392.0
5,102,6,right,right,True,422.0
6,102,7,left,right,True,470.0
7,102,8,left,left,True,448.0
8,102,9,right,left,True,522.0
9,102,10,right,right,True,438.0
10,102,11,right,right,True,498.0
11,102,12,left,left,True,430.0
12,102,13,left,right,True,440.0
13,102,14,right,left,True,400.0
14,102,15,right,right,False,436.0
15,102,16,left,left,True,507.0
16,102,17,right,right,True,515.0
17,102,18,left,free choice,True,543.0
18,102,19,left,free choice,True,540.0
19,102,20,right,free choice,False,515.0
20,102,21,right,left,True,487.0
21,102,22,right,left,True,465.0
22,102,23,right,free choice,True,439.0
23,102,24,left,right,True,443.0
24,102,25,right,free choice,False,830.0
25,102,26,right,free choice,False,456.0
26,102,27,right,free choice,True,516.0
27,102,28,left,free choice,False,516.0
28,102,29,left,free choice,False,548.0
29,102,30,left,left,True,390.0
30,102,31,left,free choice,True,468.0
31,102,32,left,free choice,True,482.0
32,102,33,left,right,True,326.0
33,102,34,left,free choice,False,464.0
34,102,35,right,left,True,446.0
35,102,36,left,left,True,212.0
36,102,37,right,right,False,242.0
37,102,38,right,free choice,False,530.0
38,102,39,left,free choice,False,311.0
39,102,40,right,right,True,401.0
40,102,41,left,left,True,397.0
41,102,42,left,right,True,386.0
42,102,43,right,free choice,True,527.0
43,102,44,right,right,True,341.0
44,102,45,left,left,False,277.0
45,102,46,left,right,True,501.0
46,102,47,right,left,True,413.0
47,102,48,right,free choice,False,593.0
48,102,49,right,left,True,527.0
49,102,50,left,left,True,404.0
50,102,51,right,left,True,362.0
51,102,52,left,right,True,362.0
52,102,53,right,right,True,438.0
53,102,54,right,left,True,394.0
54,102,55,right,left,True,436.0
55,102,56,left,left,True,436.0
56,102,57,left,right,True,392.0
57,102,58,right,left,True,378.0
58,102,59,right,left,True,454.0
59,102,60,right,right,True,442.0
60,102,61,right,left,True,434.0
61,102,62,left,left,True,426.0
62,102,63,left,left,True,416.0
63,102,64,right,right,True,372.0
64,102,65,left,right,True,414.0
65,102,66,right,left,True,422.0
66,102,67,right,right,True,394.0
67,102,68,left,left,True,348.0
68,102,69,left,right,True,410.0
69,102,70,left,right,True,440.0
70,102,71,right,right,True,428.0
71,102,72,right,right,True,378.0
72,102,73,left,left,True,369.0
73,102,74,left,right,True,402.0
74,102,75,left,left,True,444.0
75,102,76,left,right,True,438.0
76,102,77,right,left,True,422.0
77,102,78,right,right,True,396.0
78,102,79,left,left,True,368.0
79,102,80,left,right,True,426.0
80,102,81,left,right,True,396.0
81,102,82,right,right,True,356.0
82,102,83,right,right,True,452.0
83,102,84,left,right,True,414.0
84,102,85,right,right,True,398.0
85,102,86,left,left,True,354.0
86,102,87,left,left,True,430.0
87,102,88,right,right,True,341.0
88,102,89,right,left,True,340.0
89,102,90,left,right,True,436.0
90,102,91,left,right,True,400.0
91,102,92,left,left,True,520.0
92,102,93,right,right,True,376.0
93,102,94,left,right,True,356.0
94,102,95,left,right,True,380.0
95,102,96,right,left,True,372.0
96,102,97,left,left,True,406.0
97,102,98,right,right,True,464.0
98,102,99,right,left,True,429.0
99,102,100,right,left,True,391.0
100,102,101,left,right,True,457.0
101,102,102,right,left,True,425.0
102,102,103,left,left,True,427.0
103,102,104,left,left,True,397.0
104,102,105,right,right,True,453.0
105,102,106,right,right,True,351.0
106,102,107,left,left,True,425.0
107,102,108,right,left,True,355.0
108,102,109,left,free choice,True,643.0
109,102,110,left,free choice,True,439.0
110,102,111,right,left,True,400.0
111,102,112,right,left,True,371.0
112,102,113,left,free choice,True,529.0
113,102,114,right,right,True,387.0
114,102,115,right,left,True,413.0
115,102,116,right,right,True,415.0
116,102,117,left,left,True,443.0
117,102,118,left,right,True,411.0
118,102,119,right,left,False,365.0
119,102,120,right,free choice,False,670.0
120,102,121,right,free choice,False,592.0
121,102,122,right,free choice,False,474.0
122,102,123,left,free choice,True,422.0
123,102,124,left,left,True,450.0
124,102,125,right,free choice,False,412.0
125,102,126,left,right,True,450.0
126,102,127,left,free choice,False,460.0
127,102,128,right,free choice,True,548.0
128,102,129,left,left,True,434.0
129,102,130,right,free choice,False,422.0
130,102,131,left,right,True,341.0
131,102,132,right,right,True,393.0
132,102,133,right,free choice,True,464.0
133,102,134,left,left,True,407.0
134,102,135,left,free choice,False,341.0
135,102,136,left,free choice,True,501.0
136,102,137,right,right,True,437.0
137,102,138,right,right,True,421.0
138,102,139,right,left,True,437.0
139,102,140,right,right,True,329.0
140,102,141,left,right,True,459.0
141,102,142,right,free choice,True,459.0
142,102,143,right,free choice,True,383.0
143,102,144,left,left,True,427.0
144,102,145,right,free choice,False,533.0
145,102,146,right,right,True,379.0
146,102,147,left,free choice,False,455.0
147,102,148,left,right,True,399.0
148,102,149,right,left,False,355.0
149,102,150,left,right,True,471.0
150,102,151,left,free choice,False,473.0
151,102,152,left,left,True,363.0
152,102,153,right,free choice,False,467.0
153,102,154,left,right,True,440.0
154,102,155,left,right,True,340.0
155,102,156,left,free choice,False,421.0
156,102,157,right,left,True,460.0
157,102,158,left,right,True,380.0
158,102,159,left,left,True,468.0
159,102,160,left,free choice,True,454.0
160,102,161,left,free choice,True,422.0
161,102,162,left,free choice,True,474.0
162,102,163,right,left,True,460.0
163,102,164,right,right,True,352.0
164,102,165,left,left,True,394.0
165,102,166,right,right,True,423.0
166,102,167,left,left,True,293.0
167,102,168,right,right,True,451.0
168,102,169,right,free choice,False,481.0
169,102,170,right,free choice,False,421.0
171,102,172,left,right,True,397.0
172,102,173,left,left,True,357.0
173,102,174,left,left,True,448.0
174,102,175,right,right,True,363.0
175,102,176,left,free choice,True,539.0
176,102,177,right,left,True,314.0
177,102,178,left,left,True,386.0
178,102,179,right,free choice,False,409.0
179,102,180,left,right,True,442.0
180,102,181,left,right,True,394.0
181,102,182,left,left,True,468.0
182,102,183,right,right,True,382.0
183,102,184,left,free choice,True,526.0
184,102,185,left,free choice,True,384.0
185,102,186,right,free choice,False,360.0
186,102,187,left,free choice,True,348.0
187,102,188,right,right,True,474.0
188,102,189,right,left,True,410.0
189,102,190,right,free choice,False,400.0
190,102,191,left,free choice,True,396.0
191,102,192,right,left,True,444.0
192,102,193,right,free choice,False,438.0
193,102,194,left,free choice,True,330.0
194,102,195,left,free choice,True,336.0
195,102,196,left,right,True,392.0
196,102,197,left,free choice,False,402.0
198,102,199,left,free choice,True,542.0
199,102,200,left,free choice,True,426.0
200,102,201,right,free choice,False,447.0
201,102,202,left,free choice,False,393.0
202,102,203,right,free choice,False,475.0
203,102,204,left,left,True,488.0
204,102,205,right,free choice,False,369.0
205,102,206,right,right,True,407.0
206,102,207,left,free choice,False,481.0
207,102,208,left,free choice,False,445.0
208,102,209,right,free choice,True,391.0
209,102,210,left,free choice,False,353.0
210,102,211,right,free choice,True,387.0
211,102,212,right,left,True,565.0
212,102,213,right,right,True,429.0
213,102,214,left,free choice,True,603.0
214,102,215,left,left,True,398.0
215,102,216,right,free choice,False,430.0
216,102,217,right,free choice,False,324.0
217,102,218,right,free choice,False,274.0
218,102,219,left,free choice,True,342.0
219,102,220,left,right,True,354.0
220,102,221,right,free choice,True,528.0
221,102,222,right,free choice,True,322.0
222,102,223,right,left,True,450.0
223,102,224,left,free choice,True,404.0
224,102,225,right,free choice,False,361.0
225,102,226,right,free choice,False,401.0
226,102,227,right,free choice,False,409.0
227,102,228,left,right,True,408.0
228,102,229,left,right,True,403.0
229,102,230,left,right,True,357.0
230,102,231,left,free choice,True,405.0
231,102,232,right,free choice,False,471.0
232,102,233,left,left,True,461.0
233,102,234,left,right,True,341.0
234,102,235,right,free choice,False,377.0
235,102,236,left,left,True,433.0
236,102,237,right,free choice,False,363.0
237,102,238,right,free choice,False,399.0
238,102,239,right,free choice,False,439.0
239,102,240,right,free choice,False,331.0
240,102,241,left,left,True,277.0
241,102,242,right,free choice,False,409.0
242,102,243,left,free choice,False,651.0
243,102,244,right,right,True,453.0
244,102,245,left,right,True,427.0
245,102,246,left,free choice,True,393.0
246,102,247,right,left,True,410.0
247,102,248,right,left,True,353.0
248,102,249,left,right,True,470.0
249,102,250,left,free choice,False,396.0
250,102,251,left,free choice,False,333.0
251,102,252,right,left,True,298.0
252,102,253,left,left,True,346.0
253,102,254,right,free choice,False,288.0
254,102,255,right,right,True,438.0
255,102,256,right,free choice,False,370.0
256,102,257,left,left,True,288.0
257,102,258,right,right,True,505.0
258,102,259,left,right,True,368.0
259,102,260,left,free choice,True,370.0
260,102,261,left,left,True,404.0
261,102,262,left,free choice,True,446.0
262,102,263,right,right,True,439.0
263,102,264,right,right,True,339.0
264,102,265,left,left,True,303.0
265,102,266,right,right,True,295.0
266,102,267,right,free choice,True,339.0
267,102,268,left,free choice,False,419.0
268,102,269,right,free choice,False,375.0
269,102,270,left,right,False,315.0
270,102,271,right,free choice,True,435.0
271,102,272,right,free choice,False,399.0
272,102,273,left,free choice,False,470.0
273,102,274,left,free choice,False,332.0
274,102,275,left,left,True,399.0
275,102,276,left,right,True,446.0
276,102,277,left,free choice,True,556.0
277,102,278,right,free choice,False,344.0
278,102,279,left,free choice,False,386.0
279,102,280,left,free choice,False,416.0
280,102,281,left,free choice,False,408.0
281,102,282,left,right,True,438.0
282,102,283,left,free choice,False,530.0
283,102,284,right,left,True,400.0
284,102,285,left,free choice,False,568.0
285,102,286,left,right,True,414.0
286,102,287,right,right,True,406.0
287,102,288,right,free choice,True,312.0
288,102,289,right,left,False,306.0
289,102,290,left,right,False,320.0
290,102,291,left,free choice,False,544.0
291,102,292,left,left,True,428.0
292,102,293,right,free choice,True,538.0
293,102,294,right,right,True,394.0
294,102,295,left,free choice,False,396.0
295,102,296,left,free choice,False,435.0
296,102,297,right,free choice,True,471.0
297,102,298,right,left,True,406.0
298,102,299,left,free choice,True,395.0
299,102,300,left,left,True,339.0
300,102,301,left,free choice,True,491.0
301,102,302,left,free choice,True,377.0
302,102,303,left,right,True,337.0
303,102,304,right,left,True,397.0
304,102,305,left,free choice,True,393.0
305,102,306,right,free choice,False,411.0
306,102,307,right,free choice,False,392.0
307,102,308,right,free choice,False,447.0
308,102,309,right,free choice,False,377.0
309,102,310,right,free choice,False,360.0
310,102,311,right,free choice,False,372.0
311,102,312,left,left,True,530.0
312,102,313,right,right,True,372.0
313,102,314,right,left,True,326.0
314,102,315,right,free choice,False,388.0
315,102,316,left,free choice,True,406.0
316,102,317,right,left,True,436.0
317,102,318,right,right,True,336.0
318,102,319,left,left,True,384.0
319,102,320,left,free choice,True,415.0
320,102,321,left,left,True,403.0
321,102,322,right,right,True,453.0
322,102,323,right,free choice,True,478.0
323,102,324,left,free choice,False,477.0
324,102,325,left,left,True,337.0
325,102,326,right,right,True,425.0
326,102,327,right,free choice,True,619.0
327,102,328,right,free choice,True,387.0
328,102,329,right,free choice,True,509.0
329,102,330,right,left,True,423.0
330,102,331,left,free choice,True,395.0
331,102,332,right,free choice,False,403.0
332,102,333,right,left,True,221.0
333,102,334,left,free choice,True,321.0
334,102,335,left,right,True,421.0
335,102,336,left,free choice,True,341.0
336,102,337,right,left,True,361.0
337,102,338,right,right,True,373.0
338,102,339,right,left,True,379.0
339,102,340,right,right,True,383.0
340,102,341,right,left,True,343.0
341,102,342,right,free choice,False,351.0
342,102,343,left,right,True,381.0
343,102,344,right,right,True,385.0
344,102,345,right,left,True,372.0
345,102,346,left,right,True,386.0
346,102,347,left,free choice,False,505.0
347,102,348,left,left,True,400.0
348,102,349,left,right,True,478.0
349,102,350,neutral,free choice,True,458.0
350,102,351,right,left,True,350.0
351,102,352,right,left,True,392.0
352,102,353,right,right,True,374.0
353,102,354,neutral,free choice,True,496.0
354,102,355,left,left,True,376.0
355,102,356,left,right,True,376.0
356,102,357,left,right,True,376.0
357,102,358,neutral,free choice,False,352.0
358,102,359,right,left,True,329.0
359,102,360,right,right,True,375.0
360,102,361,neutral,free choice,True,463.0
361,102,362,left,left,True,327.0
362,102,363,left,right,True,337.0
363,102,364,left,right,True,405.0
364,102,365,neutral,free choice,False,503.0
365,102,366,left,left,True,487.0
366,102,367,neutral,free choice,False,436.0
367,102,368,left,left,True,324.0
368,102,369,left,right,False,307.0
369,102,370,neutral,free choice,False,552.0
370,102,371,right,right,True,342.0
371,102,372,neutral,free choice,True,410.0
372,102,373,neutral,free choice,True,444.0
373,102,374,neutral,free choice,False,446.0
374,102,375,neutral,free choice,False,412.0
375,102,376,neutral,free choice,False,386.0
376,102,377,left,left,True,428.0
377,102,378,left,right,False,298.0
378,102,379,neutral,free choice,False,602.0
379,102,380,left,right,True,430.0
380,102,381,neutral,free choice,False,368.0
381,102,382,right,left,True,426.0
382,102,383,left,right,True,332.0
383,102,384,neutral,free choice,False,398.0
384,102,385,right,right,True,358.0
385,102,386,neutral,free choice,True,382.0
386,102,387,neutral,free choice,True,370.0
387,102,388,neutral,free choice,True,344.0
388,102,389,left,left,True,339.0
389,102,390,left,right,True,391.0
390,102,391,neutral,free choice,True,377.0
391,102,392,right,left,True,366.0
392,102,393,neutral,free choice,False,411.0
393,102,394,right,left,True,353.0
394,102,395,neutral,free choice,False,335.0
395,102,396,neutral,free choice,False,323.0
396,102,397,right,right,True,447.0
397,102,398,left,left,True,329.0
398,102,399,right,right,True,419.0
399,102,400,neutral,free choice,True,339.0
400,102,401,neutral,free choice,True,383.0
401,102,402,right,left,True,403.0
402,102,403,neutral,free choice,True,467.0
403,102,404,right,left,True,321.0
404,102,405,neutral,free choice,False,332.0
405,102,406,neutral,free choice,True,394.0
406,102,407,left,right,True,412.0
407,102,408,neutral,free choice,True,326.0
408,102,409,left,left,True,396.0
409,102,410,neutral,free choice,False,424.0
410,102,411,neutral,free choice,False,430.0
411,102,412,neutral,free choice,False,304.0
412,102,413,neutral,free choice,False,402.0
413,102,414,left,left,True,361.0
414,102,415,right,right,True,401.0
415,102,416,neutral,free choice,False,522.0
416,102,417,right,left,True,413.0
417,102,418,neutral,free choice,False,433.0
418,102,419,neutral,free choice,False,397.0
419,102,420,right,left,True,381.0
420,102,421,neutral,free choice,False,329.0
421,102,422,neutral,free choice,False,391.0
422,102,423,left,right,True,345.0
423,102,424,left,right,True,363.0
424,102,425,neutral,free choice,True,431.0
425,102,426,neutral,free choice,True,429.0
426,102,427,right,left,True,379.0
427,102,428,left,right,True,383.0
428,102,429,right,right,True,355.0
429,102,430,neutral,free choice,True,475.0
430,102,431,left,left,True,375.0
431,102,432,neutral,free choice,False,435.0
432,102,433,neutral,free choice,True,395.0
433,102,434,neutral,free choice,False,393.0
434,102,435,neutral,free choice,False,383.0
435,102,436,right,right,True,391.0
436,102,437,neutral,free choice,False,433.0
437,102,438,neutral,free choice,False,342.0
438,102,439,neutral,free choice,False,382.0
439,102,440,right,left,True,470.0
441,102,442,right,right,True,424.0
442,102,443,neutral,free choice,True,426.0
443,102,444,left,left,True,420.0
444,102,445,left,left,True,416.0
445,102,446,right,right,True,372.0
446,102,447,neutral,free choice,False,566.0
447,102,448,neutral,free choice,False,532.0
448,102,449,neutral,free choice,False,470.0
449,102,450,neutral,free choice,False,368.0
450,102,451,right,right,True,454.0
451,102,452,neutral,free choice,True,504.0
452,102,453,neutral,free choice,True,356.0
453,102,454,right,left,True,348.0
454,102,455,neutral,free choice,True,421.0
455,102,456,neutral,free choice,False,293.0
456,102,457,left,right,True,315.0
457,102,458,left,left,False,307.0
458,102,459,left,left,True,333.0
459,102,460,neutral,free choice,False,427.0
460,102,461,right,right,True,405.0
461,102,462,right,right,True,386.0
462,102,463,right,left,True,292.0
463,102,464,neutral,free choice,False,470.0
464,102,465,right,right,True,361.0
465,102,466,right,left,True,384.0
466,102,467,neutral,free choice,False,360.0
467,102,468,left,left,True,412.0
468,102,469,left,,False,724.0
469,102,470,left,,True,800.0
470,102,471,right,,True,1004.0
471,102,472,right,,True,580.0
472,102,473,left,,False,776.0
473,102,474,left,,False,802.0
474,102,475,left,,False,1522.0
475,102,476,right,,True,1573.0
476,102,477,right,,False,1495.0
477,102,478,left,,False,1093.0
478,102,479,right,,True,1618.0
479,102,480,right,,True,1474.0
480,102,481,left,,False,1528.0
481,102,482,right,,False,1222.0
482,102,483,left,,True,1098.0
483,102,484,left,,False,1086.0
484,102,485,right,,True,1394.0
485,102,486,left,,False,896.0
486,102,487,right,,False,1414.0
487,102,488,left,,True,1592.0
488,102,489,left,,False,1429.0
489,102,490,right,,True,2095.0
490,102,491,left,,False,1533.0
491,102,492,left,,False,1443.0
492,102,493,left,,False,1171.0
493,102,494,right,,True,1936.0
494,102,495,right,,False,1626.0
495,102,496,left,,True,990.0
496,102,497,right,,False,1476.0
497,102,498,left,,False,1653.0
498,102,499,left,,False,823.0
499,102,500,right,,False,1559.0
500,102,501,right,,True,1391.0
501,102,502,left,,False,1657.0
502,102,503,right,,True,1551.0
503,102,504,right,,False,1785.0
504,102,505,right,,True,1761.0
505,102,506,right,,True,2605.0
506,102,507,left,,True,3424.0
507,102,508,right,,True,1800.0
508,102,509,right,,True,868.0
509,102,510,left,,True,828.0
510,102,511,right,,True,508.0
511,102,512,left,,False,1916.0
512,102,513,right,,False,1029.0
513,102,514,left,,True,1235.0
514,102,515,right,,True,1177.0
515,102,516,right,,True,1134.0
516,102,517,left,,False,932.0
517,102,518,right,,False,590.0
518,102,519,left,,True,1648.0
519,102,520,right,,True,1454.0
520,102,521,right,,False,636.0
521,102,522,right,,True,698.0
522,102,523,left,,True,640.0
523,102,524,left,,True,772.0
524,102,525,right,,True,1134.0
525,102,526,right,,False,483.0
526,102,527,right,,True,1183.0
527,102,528,right,,True,551.0
528,102,529,left,,True,473.0
529,102,530,right,,True,723.0
530,102,531,right,,True,499.0
531,102,532,right,,True,603.0
532,102,533,left,,True,454.0
533,102,534,left,,True,460.0
534,102,535,right,,False,424.0
535,102,536,right,,True,599.0
536,102,537,left,,True,479.0
537,102,538,left,,True,763.0
538,102,539,left,,True,639.0
539,102,540,left,,True,435.0
540,102,541,left,,False,633.0
541,102,542,left,,True,915.0
542,102,543,left,,True,401.0
543,102,544,right,,True,553.0
544,102,545,right,,True,407.0
545,102,546,left,,True,355.0
546,102,547,right,,True,1044.0
547,102,548,left,,True,384.0
548,102,549,right,,True,384.0
549,102,550,left,,True,612.0
550,102,551,right,,True,390.0
551,102,552,left,,True,616.0
552,102,553,left,,False,762.0
553,102,554,right,,True,1174.0
554,102,555,right,,True,452.0
555,102,556,left,,True,385.0
556,102,557,left,,True,397.0
557,102,558,left,,True,374.0
1,103,2,right,right,False,395.0
2,103,3,right,right,True,436.0
3,103,4,left,right,True,459.0
4,103,5,right,right,True,383.0
5,103,6,right,left,True,459.0
6,103,7,left,left,True,431.0
7,103,8,left,left,True,437.0
8,103,9,right,left,True,373.0
9,103,10,left,left,True,439.0
10,103,11,left,right,True,403.0
11,103,12,left,right,True,487.0
12,103,13,left,left,True,337.0
13,103,14,right,right,True,365.0
14,103,15,left,right,True,451.0
15,103,16,right,left,True,345.0
16,103,17,left,free choice,False,641.0
17,103,18,right,free choice,True,476.0
18,103,19,right,right,True,433.0
19,103,20,left,free choice,False,590.0
20,103,21,right,right,True,465.0
21,103,22,left,free choice,True,503.0
22,103,23,left,free choice,True,395.0
23,103,24,right,left,True,361.0
24,103,25,left,right,True,425.0
25,103,26,left,right,True,463.0
26,103,27,right,free choice,False,487.0
27,103,28,left,left,True,392.0
28,103,29,left,right,True,390.0
29,103,30,left,left,True,332.0
30,103,31,right,free choice,True,314.0
31,103,32,left,free choice,True,363.0
32,103,33,left,free choice,False,533.0
33,103,34,left,left,True,247.0
34,103,35,left,right,True,401.0
35,103,36,right,free choice,False,341.0
36,103,37,left,left,False,261.0
37,103,38,left,free choice,True,481.0
38,103,39,right,left,True,377.0
39,103,40,right,free choice,False,465.0
40,103,41,right,right,True,379.0
41,103,42,left,free choice,False,499.0
42,103,43,right,right,True,495.0
43,103,44,right,free choice,True,502.0
44,103,45,right,free choice,True,439.0
45,103,46,right,free choice,True,359.0
46,103,47,right,left,True,391.0
48,103,49,left,right,True,498.0
49,103,50,left,right,True,430.0
50,103,51,left,left,True,336.0
51,103,52,left,right,True,316.0
52,103,53,left,left,True,236.0
53,103,54,left,left,True,340.0
54,103,55,right,right,False,296.0
55,103,56,left,left,True,444.0
56,103,57,left,right,True,382.0
57,103,58,left,right,True,430.0
58,103,59,left,left,True,424.0
59,103,60,right,left,True,465.0
60,103,61,right,left,True,411.0
61,103,62,right,left,True,393.0
62,103,63,right,left,True,363.0
63,103,64,left,left,True,363.0
64,103,65,right,right,True,427.0
65,103,66,left,right,True,425.0
66,103,67,right,left,True,371.0
67,103,68,right,right,True,345.0
68,103,69,left,left,True,351.0
69,103,70,left,right,True,433.0
70,103,71,right,right,True,463.0
71,103,72,left,right,True,391.0
72,103,73,right,right,True,437.0
73,103,74,left,right,True,484.0
74,103,75,left,left,True,326.0
75,103,76,right,right,True,420.0
76,103,77,left,left,True,365.0
77,103,78,left,left,True,460.0
78,103,79,right,right,True,404.0
79,103,80,right,left,True,364.0
80,103,81,right,left,False,424.0
81,103,82,right,left,True,470.0
82,103,83,right,left,True,388.0
83,103,84,right,left,True,382.0
84,103,85,left,left,True,374.0
85,103,86,left,right,True,440.0
86,103,87,right,right,True,452.0
87,103,88,right,right,True,310.0
88,103,89,right,right,True,420.0
89,103,90,right,left,True,364.0
90,103,91,left,left,True,444.0
91,103,92,left,right,True,390.0
92,103,93,right,left,True,448.0
93,103,94,left,right,True,366.0
94,103,95,right,left,True,532.0
95,103,96,right,left,True,437.0
96,103,97,right,right,True,453.0
97,103,98,right,right,False,295.0
98,103,99,right,right,True,407.0
99,103,100,right,right,True,445.0
100,103,101,left,right,True,355.0
101,103,102,left,left,True,346.0
102,103,103,right,left,True,420.0
103,103,104,left,right,True,388.0
104,103,105,left,left,True,382.0
105,103,106,right,right,True,547.0
106,103,107,left,left,True,332.0
107,103,108,left,right,True,366.0
108,103,109,right,left,True,424.0
109,103,110,right,left,True,414.0
110,103,111,right,free choice,False,514.0
111,103,112,right,free choice,False,324.0
112,103,113,right,right,True,384.0
113,103,114,right,left,True,296.0
114,103,115,left,right,True,316.0
115,103,116,left,free choice,True,280.0
116,103,117,right,right,True,292.0
117,103,118,right,free choice,True,330.0
118,103,119,left,free choice,True,328.0
119,103,120,right,left,False,322.0
120,103,121,right,free choice,False,474.0
121,103,122,right,free choice,True,410.0
122,103,123,right,free choice,False,360.0
123,103,124,right,right,True,292.0
124,103,125,left,free choice,True,422.0
125,103,126,left,right,True,323.0
126,103,127,right,left,True,430.0
127,103,128,left,right,True,328.0
129,103,130,right,free choice,False,550.0
130,103,131,right,free choice,True,352.0
131,103,132,left,left,False,466.0
132,103,133,right,free choice,False,452.0
133,103,134,left,free choice,False,478.0
134,103,135,right,free choice,True,374.0
136,103,137,left,free choice,True,468.0
137,103,138,left,left,True,418.0
138,103,139,right,free choice,True,402.0
139,103,140,right,right,True,390.0
140,103,141,right,right,True,404.0
141,103,142,left,left,True,316.0
142,103,143,right,free choice,True,328.0
143,103,144,left,free choice,True,358.0
144,103,145,right,right,True,306.0
145,103,146,left,left,True,380.0
146,103,147,right,free choice,True,400.0
147,103,148,right,free choice,True,360.0
148,103,149,left,right,False,244.0
149,103,150,right,free choice,True,393.0
150,103,151,left,free choice,False,299.0
151,103,152,left,free choice,False,355.0
152,103,153,left,free choice,False,395.0
153,103,154,right,free choice,True,436.0
154,103,155,left,left,True,335.0
155,103,156,right,free choice,False,491.0
156,103,157,right,free choice,False,500.0
157,103,158,right,free choice,False,472.0
158,103,159,right,free choice,False,594.0
159,103,160,left,free choice,False,378.0
160,103,161,right,right,True,422.0
161,103,162,right,free choice,False,430.0
162,103,163,left,left,True,512.0
163,103,164,left,left,True,350.0
164,103,165,left,right,True,456.0
165,103,166,left,left,True,340.0
166,103,167,left,left,True,400.0
168,103,169,left,left,True,452.0
169,103,170,left,free choice,False,442.0
170,103,171,left,free choice,False,470.0
172,103,173,right,free choice,False,500.0
173,103,174,right,free choice,True,340.0
174,103,175,left,free choice,False,416.0
175,103,176,left,free choice,True,348.0
176,103,177,left,free choice,False,330.0
177,103,178,right,free choice,False,412.0
178,103,179,left,free choice,False,413.0
179,103,180,left,right,True,477.0
180,103,181,left,right,True,413.0
181,103,182,right,left,True,353.0
182,103,183,left,right,True,408.0
183,103,184,right,free choice,True,517.0
184,103,185,right,free choice,True,345.0
185,103,186,left,free choice,False,431.0
186,103,187,right,right,True,425.0
188,103,189,left,left,True,378.0
189,103,190,right,right,True,430.0
190,103,191,left,free choice,False,611.0
191,103,192,right,left,True,325.0
192,103,193,right,free choice,True,515.0
193,103,194,right,left,True,267.0
194,103,195,left,free choice,False,361.0
197,103,198,right,left,False,273.0
198,103,199,left,free choice,True,465.0
199,103,200,left,free choice,False,291.0
200,103,201,right,right,False,365.0
201,103,202,left,left,True,507.0
202,103,203,left,free choice,True,701.0
203,103,204,left,free choice,False,361.0
204,103,205,right,left,True,405.0
205,103,206,left,right,True,391.0
206,103,207,right,left,False,361.0
207,103,208,left,left,True,349.0
208,103,209,right,free choice,False,475.0
209,103,210,left,right,True,424.0
210,103,211,left,free choice,False,353.0
211,103,212,right,free choice,True,319.0
212,103,213,left,left,False,339.0
213,103,214,right,left,True,395.0
214,103,215,left,free choice,False,343.0
215,103,216,left,right,True,443.0
216,103,217,left,right,True,427.0
217,103,218,right,left,True,417.0
219,103,220,left,right,True,405.0
221,103,222,left,free choice,False,325.0
222,103,223,left,left,False,282.0
223,103,224,right,left,True,302.0
224,103,225,right,right,True,322.0
225,103,226,left,free choice,True,294.0
226,103,227,left,free choice,True,322.0
227,103,228,right,free choice,True,338.0
228,103,229,right,free choice,False,461.0
229,103,230,right,right,True,341.0
230,103,231,right,free choice,False,377.0
231,103,232,right,free choice,True,337.0
232,103,233,right,free choice,True,354.0
233,103,234,right,free choice,True,355.0
234,103,235,left,right,True,391.0
235,103,236,left,left,False,305.0
236,103,237,left,free choice,True,495.0
237,103,238,right,free choice,True,327.0
238,103,239,right,left,True,433.0
239,103,240,right,free choice,True,307.0
240,103,241,right,right,True,553.0
241,103,242,left,left,True,359.0
242,103,243,right,free choice,True,347.0
243,103,244,left,free choice,True,285.0
244,103,245,right,right,True,379.0
245,103,246,left,left,True,395.0
246,103,247,right,left,False,301.0
247,103,248,right,free choice,False,481.0
248,103,249,left,free choice,False,689.0
249,103,250,right,free choice,False,367.0
250,103,251,left,free choice,False,349.0
251,103,252,right,right,False,367.0
252,103,253,right,free choice,True,445.0
253,103,254,left,free choice,False,419.0
254,103,255,left,free choice,False,355.0
255,103,256,left,free choice,False,359.0
256,103,257,right,free choice,True,419.0
257,103,258,left,right,True,407.0
258,103,259,right,free choice,True,407.0
259,103,260,right,free choice,True,337.0
260,103,261,left,free choice,False,494.0
261,103,262,right,free choice,True,362.0
262,103,263,left,left,False,321.0
263,103,264,left,left,True,349.0
264,103,265,right,free choice,True,475.0
265,103,266,left,right,True,459.0
266,103,267,left,right,True,391.0
267,103,268,right,left,True,337.0
268,103,269,left,free choice,False,493.0
269,103,270,right,right,True,551.0
270,103,271,right,right,True,381.0
271,103,272,left,left,True,349.0
272,103,273,right,right,True,379.0
273,103,274,right,right,True,371.0
274,103,275,left,left,False,333.0
275,103,276,left,right,True,421.0
276,103,277,left,right,True,421.0
277,103,278,right,left,True,377.0
278,103,279,right,free choice,True,429.0
279,103,280,left,free choice,False,507.0
280,103,281,right,right,True,377.0
281,103,282,right,free choice,True,481.0
282,103,283,left,free choice,False,381.0
283,103,284,left,free choice,False,417.0
284,103,285,left,left,True,345.0
285,103,286,left,free choice,False,447.0
286,103,287,right,right,True,472.0
287,103,288,left,free choice,False,558.0
288,103,289,left,free choice,False,482.0
289,103,290,right,free choice,True,374.0
290,103,291,left,left,True,341.0
291,103,292,right,free choice,True,588.0
292,103,293,left,right,True,518.0
293,103,294,left,free choice,False,454.0
296,103,297,right,free choice,True,485.0
297,103,298,left,right,True,551.0
298,103,299,right,free choice,True,437.0
299,103,300,right,free choice,False,425.0
300,103,301,right,left,True,419.0
301,103,302,left,free choice,False,411.0
302,103,303,right,right,True,357.0
303,103,304,right,free choice,False,409.0
304,103,305,right,free choice,True,463.0
305,103,306,left,free choice,True,283.0
306,103,307,right,free choice,True,399.0
307,103,308,left,right,True,299.0
308,103,309,right,free choice,False,319.0
309,103,310,right,left,True,423.0
310,103,311,left,free choice,False,391.0
311,103,312,left,free choice,False,445.0
313,103,314,left,free choice,False,463.0
314,103,315,right,left,True,438.0
315,103,316,left,right,True,390.0
316,103,317,left,left,True,408.0
317,103,318,left,free choice,False,503.0
318,103,319,right,left,True,338.0
319,103,320,left,right,True,354.0
320,103,321,right,left,True,344.0
321,103,322,left,left,False,332.0
322,103,323,left,right,True,426.0
323,103,324,left,free choice,False,544.0
324,103,325,left,left,True,336.0
325,103,326,right,left,True,476.0
326,103,327,left,free choice,False,380.0
327,103,328,left,right,True,347.0
328,103,329,left,right,True,337.0
329,103,330,right,left,True,417.0
330,103,331,right,free choice,False,865.0
331,103,332,left,free choice,False,487.0
332,103,333,left,free choice,True,821.0
333,103,334,right,free choice,False,381.0
334,103,335,left,free choice,True,257.0
335,103,336,left,free choice,False,373.0
336,103,337,left,free choice,True,315.0
338,103,339,right,right,True,331.0
339,103,340,left,left,True,305.0
340,103,341,right,left,False,335.0
341,103,342,left,right,False,307.0
342,103,343,right,left,True,404.0
343,103,344,right,free choice,True,380.0
344,103,345,left,left,True,336.0
345,103,346,right,right,True,373.0
346,103,347,right,right,False,370.0
347,103,348,left,free choice,False,432.0
348,103,349,neutral,free choice,True,349.0
349,103,350,neutral,free choice,True,363.0
350,103,351,neutral,free choice,True,427.0
351,103,352,right,left,True,277.0
352,103,353,neutral,free choice,False,380.0
353,103,354,neutral,free choice,True,516.0
354,103,355,neutral,free choice,False,296.0
355,103,356,left,left,True,413.0
356,103,357,left,right,True,354.0
357,103,358,neutral,free choice,False,338.0
359,103,360,right,left,True,362.0
360,103,361,right,right,False,298.0
361,103,362,neutral,free choice,False,366.0
363,103,364,left,left,True,444.0
364,103,365,right,right,True,434.0
365,103,366,right,left,True,314.0
366,103,367,neutral,free choice,False,496.0
367,103,368,neutral,free choice,True,444.0
368,103,369,neutral,free choice,False,354.0
369,103,370,neutral,free choice,False,312.0
370,103,371,neutral,free choice,True,290.0
371,103,372,left,right,True,356.0
372,103,373,neutral,free choice,False,320.0
373,103,374,neutral,free choice,True,276.0
374,103,375,neutral,free choice,False,224.0
375,103,376,right,right,True,264.0
377,103,378,left,right,True,407.0
378,103,379,right,right,True,313.0
379,103,380,neutral,free choice,True,359.0
380,103,381,right,left,True,407.0
381,103,382,left,right,True,364.0
383,103,384,right,left,True,363.0
385,103,386,right,right,True,314.0
386,103,387,neutral,free choice,False,490.0
387,103,388,neutral,free choice,False,280.0
388,103,389,right,right,True,492.0
394,103,395,right,right,True,334.0
395,103,396,neutral,free choice,True,332.0
396,103,397,neutral,free choice,True,326.0
397,103,398,neutral,free choice,True,312.0
398,103,399,neutral,free choice,True,306.0
399,103,400,neutral,free choice,True,304.0
400,103,401,left,left,True,392.0
401,103,402,left,right,True,370.0
402,103,403,neutral,free choice,True,304.0
403,103,404,left,right,True,288.0
404,103,405,neutral,free choice,True,306.0
405,103,406,neutral,free choice,True,308.0
406,103,407,neutral,free choice,True,330.0
407,103,408,neutral,free choice,True,331.0
408,103,409,left,left,False,345.0
409,103,410,left,right,True,386.0
410,103,411,neutral,free choice,True,377.0
411,103,412,neutral,free choice,False,324.0
412,103,413,neutral,free choice,True,290.0
413,103,414,right,right,False,340.0
414,103,415,neutral,free choice,True,324.0
415,103,416,right,left,True,386.0
416,103,417,right,right,True,344.0
417,103,418,neutral,free choice,False,358.0
418,103,419,left,right,True,354.0
419,103,420,left,left,True,336.0
420,103,421,left,left,False,312.0
421,103,422,left,right,True,492.0
422,103,423,neutral,free choice,True,422.0
423,103,424,right,left,True,494.0
425,103,426,left,right,True,548.0
426,103,427,neutral,free choice,False,390.0
427,103,428,left,left,True,432.0
428,103,429,neutral,free choice,True,390.0
430,103,431,left,right,True,392.0
431,103,432,right,left,True,366.0
432,103,433,left,left,True,348.0
433,103,434,right,right,True,370.0
435,103,436,right,left,True,551.0
436,103,437,neutral,free choice,True,581.0
437,103,438,left,left,True,346.0
438,103,439,right,right,True,419.0
440,103,441,left,left,True,331.0
441,103,442,neutral,free choice,False,492.0
442,103,443,right,right,True,502.0
443,103,444,right,left,True,298.0
444,103,445,neutral,free choice,True,450.0
445,103,446,neutral,free choice,True,532.0
446,103,447,neutral,free choice,True,458.0
447,103,448,neutral,free choice,False,414.0
448,103,449,neutral,free choice,True,278.0
449,103,450,right,left,False,330.0
450,103,451,neutral,free choice,False,372.0
451,103,452,left,right,True,302.0
452,103,453,right,left,True,290.0
453,103,454,neutral,free choice,False,392.0
454,103,455,right,left,True,402.0
455,103,456,neutral,free choice,False,330.0
456,103,457,neutral,free choice,False,492.0
457,103,458,neutral,free choice,False,326.0
458,103,459,neutral,free choice,False,340.0
460,103,461,left,left,True,400.0
461,103,462,left,left,True,352.0
462,103,463,neutral,free choice,False,741.0
463,103,464,neutral,free choice,False,345.0
464,103,465,neutral,free choice,False,335.0
465,103,466,neutral,free choice,True,300.0
467,103,468,neutral,free choice,True,331.0
468,103,469,left,,True,2960.0
469,103,470,left,,True,940.0
470,103,471,left,,True,2312.0
471,103,472,left,,False,2385.0
472,103,473,right,,True,1909.0
473,103,474,left,,False,2015.0
474,103,475,right,,True,1509.0
475,103,476,right,,True,2059.0
476,103,477,left,,False,1911.0
477,103,478,right,,True,1069.0
478,103,479,right,,True,827.0
479,103,480,left,,False,4658.0
480,103,481,right,,False,650.0
481,103,482,right,,True,1095.0
482,103,483,left,,False,2769.0
483,103,484,right,,True,895.0
484,103,485,right,,True,2177.0
485,103,486,left,,True,931.0
486,103,487,left,,False,3221.0
487,103,488,left,,True,1261.0
488,103,489,right,,True,1473.0
489,103,490,left,,True,1299.0
490,103,491,left,,False,2683.0
491,103,492,left,,False,1371.0
492,103,493,right,,False,651.0
493,103,494,left,,True,1109.0
494,103,495,left,,False,2195.0
495,103,496,left,,False,649.0
496,103,497,right,,False,995.0
497,103,498,left,,False,541.0
498,103,499,right,,True,1229.0
499,103,500,right,,True,971.0
500,103,501,left,,True,609.0
501,103,502,left,,True,523.0
502,103,503,left,,True,539.0
503,103,504,left,,False,1331.0
504,103,505,left,,False,897.0
505,103,506,left,,True,1234.0
506,103,507,right,,True,1616.0
507,103,508,left,,False,1213.0
508,103,509,left,,True,1059.0
509,103,510,left,,False,4203.0
510,103,511,left,,True,1363.0
511,103,512,left,,False,3363.0
512,103,513,right,,True,923.0
513,103,514,right,,True,935.0
514,103,515,left,,True,1765.0
515,103,516,left,,True,1352.0
516,103,517,left,,True,930.0
517,103,518,right,,False,1348.0
518,103,519,left,,False,1378.0
519,103,520,right,,True,796.0
520,103,521,right,,True,773.0
521,103,522,left,,True,1583.0
522,103,523,right,,True,775.0
523,103,524,right,,True,549.0
524,103,525,right,,True,795.0
525,103,526,left,,False,1537.0
526,103,527,left,,False,4319.0
527,103,528,left,,True,634.0
528,103,529,right,,False,6632.0
529,103,530,left,,True,1466.0
530,103,531,right,,True,1106.0
531,103,532,right,,False,882.0
532,103,533,right,,True,410.0
533,103,534,right,,False,675.0
534,103,535,right,,True,581.0
535,103,536,right,,True,221.0
536,103,537,right,,True,609.0
537,103,538,right,,True,831.0
538,103,539,right,,True,540.0
539,103,540,right,,True,268.0
540,103,541,left,,True,734.0
541,103,542,left,,False,1076.0
542,103,543,left,,False,8766.0
543,103,544,left,,False,818.0
544,103,545,right,,True,424.0
545,103,546,right,,True,2032.0
546,103,547,right,,True,1730.0
547,103,548,right,,False,6019.0
548,103,549,right,,True,903.0
549,103,550,right,,False,546.0
550,103,551,right,,True,614.0
551,103,552,left,,True,548.0
552,103,553,right,,True,890.0
553,103,554,right,,True,6660.0
554,103,555,left,,True,1388.0
555,103,556,right,,True,428.0
556,103,557,right,,False,1304.0
557,103,558,left,,False,12112.0
1,104,2,left,left,True,392.0
2,104,3,right,right,True,402.0
3,104,4,left,right,True,438.0
4,104,5,left,left,True,370.0
5,104,6,left,left,False,364.0
6,104,7,right,left,True,390.0
7,104,8,left,left,True,428.0
8,104,9,right,right,True,458.0
9,104,10,right,right,True,462.0
10,104,11,left,right,True,382.0
11,104,12,right,left,True,362.0
12,104,13,right,left,True,406.0
13,104,14,left,right,False,328.0
14,104,15,right,right,True,421.0
15,104,16,left,right,True,410.0
17,104,18,right,free choice,True,639.0
18,104,19,right,right,True,459.0
19,104,20,left,free choice,False,591.0
20,104,21,right,left,True,429.0
21,104,22,right,right,True,406.0
22,104,23,left,free choice,False,468.0
23,104,24,left,left,True,458.0
24,104,25,left,left,True,498.0
25,104,26,right,right,True,403.0
26,104,27,left,free choice,False,638.0
27,104,28,left,left,True,438.0
28,104,29,right,right,True,390.0
29,104,30,left,free choice,False,628.0
30,104,31,left,free choice,False,526.0
31,104,32,left,right,True,448.0
32,104,33,right,free choice,True,606.0
33,104,34,right,free choice,False,692.0
34,104,35,left,left,True,466.0
35,104,36,left,free choice,True,560.0
36,104,37,left,right,True,432.0
37,104,38,left,right,True,426.0
38,104,39,right,free choice,True,512.0
39,104,40,right,left,True,430.0
40,104,41,left,right,True,392.0
41,104,42,right,left,True,354.0
42,104,43,left,free choice,False,468.0
43,104,44,left,free choice,True,357.0
44,104,45,right,free choice,True,410.0
45,104,46,right,free choice,False,532.0
46,104,47,right,left,True,410.0
47,104,48,right,free choice,True,472.0
48,104,49,right,left,True,452.0
49,104,50,left,right,True,373.0
50,104,51,left,right,True,332.0
51,104,52,right,left,True,418.0
52,104,53,right,left,False,325.0
53,104,54,right,right,True,491.0
54,104,55,left,right,True,353.0
55,104,56,right,right,True,363.0
56,104,57,left,left,True,303.0
57,104,58,right,left,True,353.0
58,104,59,right,left,True,423.0
59,104,60,left,right,True,509.0
60,104,61,left,left,True,403.0
61,104,62,right,left,True,427.0
62,104,63,right,right,True,493.0
63,104,64,left,left,True,419.0
64,104,65,right,left,True,375.0
65,104,66,left,left,True,423.0
66,104,67,right,right,True,469.0
67,104,68,left,left,True,379.0
68,104,69,right,right,True,443.0
69,104,70,right,right,True,460.0
70,104,71,right,right,True,403.0
71,104,72,left,left,True,415.0
72,104,73,left,right,True,415.0
74,104,75,right,left,True,363.0
75,104,76,left,right,True,395.0
76,104,77,right,right,True,393.0
77,104,78,right,left,True,363.0
78,104,79,left,left,True,359.0
79,104,80,right,right,True,490.0
80,104,81,left,left,True,408.0
81,104,82,left,right,True,390.0
82,104,83,left,left,True,339.0
83,104,84,right,right,True,355.0
84,104,85,right,left,True,355.0
85,104,86,left,left,True,487.0
86,104,87,right,right,True,417.0
87,104,88,right,left,True,421.0
88,104,89,left,right,True,497.0
89,104,90,right,left,True,417.0
90,104,91,left,right,True,453.0
91,104,92,right,right,True,413.0
92,104,93,left,left,True,505.0
93,104,94,left,right,True,431.0
94,104,95,right,left,True,341.0
95,104,96,left,right,True,425.0
96,104,97,left,right,True,563.0
97,104,98,left,left,True,386.0
98,104,99,right,right,True,403.0
99,104,100,left,right,True,445.0
100,104,101,right,right,True,431.0
101,104,102,left,left,True,421.0
102,104,103,right,right,True,521.0
103,104,104,right,left,True,433.0
105,104,106,left,left,True,367.0
106,104,107,left,right,True,341.0
107,104,108,left,left,True,357.0
108,104,109,right,right,True,437.0
109,104,110,right,left,True,348.0
110,104,111,right,free choice,True,763.0
111,104,112,right,left,True,379.0
112,104,113,right,right,True,362.0
114,104,115,left,free choice,False,578.0
115,104,116,left,free choice,False,550.0
116,104,117,left,free choice,True,472.0
117,104,118,right,free choice,True,470.0
118,104,119,left,left,True,356.0
119,104,120,left,free choice,False,588.0
120,104,121,right,free choice,True,478.0
121,104,122,right,left,True,409.0
122,104,123,left,free choice,False,387.0
123,104,124,right,right,True,438.0
124,104,125,right,left,True,377.0
125,104,126,left,free choice,False,385.0
126,104,127,left,left,True,403.0
127,104,128,left,right,True,405.0
128,104,129,right,free choice,False,363.0
129,104,130,left,left,True,347.0
130,104,131,left,left,True,413.0
131,104,132,left,right,True,449.0
132,104,133,right,free choice,False,375.0
134,104,135,right,free choice,False,459.0
135,104,136,left,right,True,431.0
136,104,137,left,right,True,445.0
137,104,138,left,left,True,411.0
138,104,139,right,free choice,True,417.0
139,104,140,right,free choice,False,449.0
140,104,141,left,left,True,471.0
141,104,142,right,right,True,437.0
142,104,143,left,right,True,469.0
143,104,144,right,left,True,419.0
144,104,145,left,free choice,True,603.0
145,104,146,left,free choice,True,479.0
146,104,147,left,right,True,518.0
147,104,148,right,right,True,462.0
148,104,149,right,free choice,True,602.0
149,104,150,left,left,True,409.0
150,104,151,left,free choice,True,539.0
151,104,152,left,free choice,True,519.0
152,104,153,right,free choice,False,524.0
153,104,154,right,right,True,499.0
154,104,155,left,free choice,False,471.0
155,104,156,left,right,True,437.0
156,104,157,left,left,True,401.0
157,104,158,left,free choice,False,573.0
158,104,159,right,right,True,501.0
159,104,160,left,right,True,529.0
160,104,161,right,left,True,455.0
161,104,162,left,right,True,459.0
162,104,163,right,free choice,True,583.0
163,104,164,left,right,True,519.0
164,104,165,right,left,True,483.0
165,104,166,left,right,True,439.0
166,104,167,right,right,True,455.0
167,104,168,right,free choice,False,579.0
168,104,169,left,left,True,459.0
169,104,170,left,free choice,False,427.0
170,104,171,right,free choice,True,697.0
171,104,172,left,free choice,False,505.0
172,104,173,left,free choice,False,447.0
173,104,174,left,right,True,557.0
174,104,175,left,free choice,True,621.0
175,104,176,right,free choice,False,509.0
176,104,177,right,free choice,False,583.0
177,104,178,right,free choice,True,523.0
178,104,179,left,free choice,True,642.0
179,104,180,right,left,True,518.0
180,104,181,left,free choice,False,638.0
182,104,183,left,free choice,False,561.0
183,104,184,right,left,True,401.0
184,104,185,right,free choice,False,553.0
185,104,186,right,right,True,435.0
186,104,187,right,free choice,True,523.0
187,104,188,right,free choice,True,499.0
188,104,189,right,right,True,487.0
189,104,190,left,free choice,True,561.0
190,104,191,left,free choice,True,597.0
191,104,192,right,left,True,421.0
192,104,193,left,free choice,True,497.0
193,104,194,left,left,True,477.0
194,104,195,left,free choice,True,445.0
195,104,196,right,free choice,False,443.0
196,104,197,left,free choice,False,547.0
198,104,199,left,left,True,401.0
199,104,200,right,free choice,True,485.0
200,104,201,right,free choice,True,431.0
201,104,202,right,free choice,False,469.0
202,104,203,left,free choice,True,395.0
203,104,204,right,left,True,481.0
204,104,205,left,free choice,True,621.0
205,104,206,left,free choice,False,532.0
206,104,207,left,free choice,True,474.0
207,104,208,left,right,True,378.0
208,104,209,right,free choice,False,403.0
210,104,211,right,left,True,342.0
211,104,212,left,right,True,402.0
212,104,213,left,left,True,438.0
213,104,214,left,free choice,False,542.0
214,104,215,right,left,True,382.0
215,104,216,right,free choice,False,553.0
216,104,217,right,free choice,True,579.0
217,104,218,right,right,True,479.0
218,104,219,left,left,True,419.0
219,104,220,left,left,True,451.0
220,104,221,right,free choice,True,457.0
221,104,222,right,right,True,537.0
222,104,223,right,free choice,True,469.0
223,104,224,right,right,False,447.0
224,104,225,right,free choice,True,397.0
225,104,226,right,free choice,False,549.0
226,104,227,right,left,True,395.0
227,104,228,left,right,True,403.0
228,104,229,left,free choice,True,620.0
229,104,230,right,free choice,False,336.0
230,104,231,left,left,True,376.0
231,104,232,left,free choice,True,492.0
232,104,233,right,left,True,530.0
233,104,234,left,free choice,False,492.0
234,104,235,left,right,True,430.0
235,104,236,right,free choice,False,540.0
236,104,237,left,left,True,384.0
237,104,238,left,left,True,412.0
238,104,239,right,right,True,434.0
239,104,240,left,free choice,False,603.0
240,104,241,left,free choice,False,551.0
241,104,242,left,free choice,True,501.0
242,104,243,right,free choice,True,777.0
243,104,244,right,left,True,401.0
244,104,245,left,free choice,False,537.0
245,104,246,right,free choice,True,525.0
246,104,247,left,free choice,False,503.0
247,104,248,right,left,True,371.0
248,104,249,right,right,True,477.0
249,104,250,left,free choice,True,637.0
250,104,251,right,free choice,False,384.0
251,104,252,left,left,True,496.0
252,104,253,right,free choice,False,372.0
253,104,254,left,free choice,False,327.0
254,104,255,left,free choice,True,328.0
255,104,256,right,free choice,True,474.0
256,104,257,right,left,True,366.0
257,104,258,left,right,True,420.0
258,104,259,right,free choice,False,424.0
259,104,260,right,left,True,394.0
260,104,261,left,free choice,True,476.0
261,104,262,right,free choice,False,380.0
262,104,263,left,right,True,444.0
263,104,264,left,right,True,354.0
264,104,265,left,left,True,396.0
265,104,266,left,right,True,392.0
266,104,267,right,left,True,426.0
267,104,268,right,free choice,False,300.0
268,104,269,right,free choice,False,372.0
269,104,270,right,free choice,False,402.0
270,104,271,left,free choice,False,426.0
271,104,272,right,free choice,True,416.0
272,104,273,left,right,True,452.0
273,104,274,right,free choice,True,338.0
274,104,275,right,right,False,265.0
275,104,276,right,left,True,383.0
276,104,277,right,right,True,315.0
277,104,278,left,free choice,True,567.0
278,104,279,left,free choice,True,417.0
279,104,280,left,right,True,377.0
280,104,281,left,free choice,False,452.0
281,104,282,left,left,True,342.0
282,104,283,left,free choice,False,375.0
283,104,284,right,free choice,False,354.0
284,104,285,right,free choice,False,262.0
285,104,286,left,right,True,446.0
286,104,287,left,right,True,456.0
287,104,288,left,free choice,False,468.0
288,104,289,left,free choice,False,510.0
289,104,290,left,left,True,328.0
290,104,291,right,left,False,282.0
291,104,292,left,right,True,470.0
292,104,293,left,free choice,False,500.0
293,104,294,left,free choice,True,352.0
294,104,295,right,right,True,414.0
295,104,296,left,free choice,False,434.0
296,104,297,left,left,True,430.0
297,104,298,right,free choice,False,408.0
298,104,299,right,free choice,False,370.0
299,104,300,right,right,True,300.0
300,104,301,left,free choice,True,384.0
301,104,302,left,left,True,336.0
302,104,303,left,left,True,360.0
305,104,306,right,left,True,324.0
306,104,307,left,free choice,True,404.0
307,104,308,right,right,True,395.0
308,104,309,right,free choice,True,322.0
309,104,310,right,free choice,False,346.0
310,104,311,right,left,True,388.0
311,104,312,right,free choice,True,499.0
312,104,313,right,free choice,True,466.0
313,104,314,left,left,True,404.0
314,104,315,right,right,True,400.0
315,104,316,left,free choice,True,340.0
316,104,317,right,free choice,False,576.0
317,104,318,right,free choice,True,340.0
318,104,319,left,left,True,432.0
319,104,320,right,left,True,418.0
320,104,321,left,free choice,True,682.0
321,104,322,left,free choice,False,462.0
322,104,323,right,right,True,366.0
323,104,324,left,free choice,False,332.0
324,104,325,left,left,True,470.0
325,104,326,right,left,False,232.0
326,104,327,right,right,False,270.0
327,104,328,right,right,True,384.0
328,104,329,right,left,True,380.0
329,104,330,right,free choice,True,524.0
330,104,331,right,right,True,460.0
331,104,332,right,free choice,True,404.0
332,104,333,right,right,True,450.0
333,104,334,right,free choice,True,484.0
334,104,335,right,left,True,408.0
335,104,336,right,free choice,False,726.0
336,104,337,left,free choice,False,287.0
337,104,338,left,right,True,533.0
338,104,339,left,free choice,False,467.0
339,104,340,left,right,True,446.0
340,104,341,right,left,True,475.0
341,104,342,left,right,True,403.0
342,104,343,right,free choice,False,643.0
343,104,344,left,right,True,326.0
344,104,345,left,left,True,296.0
345,104,346,right,free choice,True,500.0
346,104,347,right,right,False,276.0
347,104,348,right,right,True,356.0
349,104,350,left,left,True,477.0
350,104,351,neutral,free choice,True,506.0
351,104,352,neutral,free choice,False,308.0
352,104,353,neutral,free choice,True,358.0
353,104,354,right,right,True,409.0
354,104,355,neutral,free choice,False,575.0
355,104,356,right,right,True,431.0
356,104,357,left,left,True,366.0
357,104,358,left,left,True,403.0
358,104,359,neutral,free choice,True,393.0
359,104,360,neutral,free choice,True,327.0
360,104,361,neutral,free choice,True,321.0
361,104,362,right,right,False,305.0
362,104,363,right,left,False,279.0
363,104,364,right,right,True,387.0
364,104,365,neutral,free choice,True,565.0
365,104,366,left,left,True,409.0
366,104,367,right,left,True,343.0
367,104,368,neutral,free choice,False,362.0
368,104,369,neutral,free choice,True,314.0
369,104,370,left,right,True,454.0
370,104,371,neutral,free choice,False,526.0
371,104,372,neutral,free choice,True,360.0
372,104,373,neutral,free choice,False,460.0
373,104,374,right,right,True,432.0
374,104,375,left,left,True,306.0
375,104,376,neutral,free choice,True,460.0
376,104,377,neutral,free choice,False,372.0
377,104,378,right,left,True,490.0
378,104,379,left,right,True,484.0
379,104,380,neutral,free choice,False,402.0
380,104,381,neutral,free choice,True,470.0
381,104,382,neutral,free choice,False,356.0
382,104,383,right,left,True,387.0
383,104,384,neutral,free choice,False,489.0
384,104,385,left,left,True,467.0
385,104,386,right,right,True,390.0
386,104,387,right,left,True,363.0
387,104,388,right,left,True,363.0
388,104,389,neutral,free choice,False,343.0
389,104,390,neutral,free choice,False,483.0
390,104,391,left,right,True,395.0
391,104,392,neutral,free choice,True,343.0
392,104,393,neutral,free choice,False,379.0
393,104,394,right,left,False,363.0
394,104,395,neutral,free choice,True,429.0
395,104,396,right,right,True,415.0
396,104,397,left,left,True,347.0
397,104,398,right,left,True,365.0
398,104,399,left,right,True,323.0
399,104,400,neutral,free choice,True,463.0
400,104,401,neutral,free choice,False,447.0
401,104,402,left,right,True,385.0
402,104,403,left,left,True,396.0
403,104,404,left,right,True,360.0
404,104,405,right,right,True,392.0
405,104,406,neutral,free choice,True,482.0
406,104,407,right,left,True,434.0
407,104,408,neutral,free choice,True,686.0
408,104,409,right,right,True,412.0
409,104,410,neutral,free choice,True,374.0
410,104,411,left,right,True,384.0
411,104,412,neutral,free choice,False,535.0
412,104,413,right,left,True,339.0
413,104,414,neutral,free choice,False,380.0
414,104,415,neutral,free choice,True,375.0
415,104,416,left,left,True,323.0
416,104,417,neutral,free choice,False,475.0
417,104,418,left,right,True,423.0
418,104,419,right,right,True,393.0
419,104,420,left,left,True,427.0
420,104,421,right,left,True,433.0
421,104,422,left,right,True,467.0
422,104,423,left,right,False,321.0
423,104,424,right,left,True,397.0
424,104,425,right,right,True,349.0
425,104,426,neutral,free choice,False,607.0
426,104,427,neutral,free choice,True,357.0
427,104,428,neutral,free choice,False,413.0
428,104,429,neutral,free choice,True,331.0
429,104,430,neutral,free choice,False,285.0
430,104,431,neutral,free choice,True,335.0
431,104,432,left,right,False,343.0
432,104,433,neutral,free choice,True,429.0
433,104,434,neutral,free choice,True,451.0
434,104,435,right,left,True,517.0
435,104,436,left,left,True,369.0
436,104,437,right,right,True,442.0
437,104,438,neutral,free choice,False,506.0
438,104,439,left,left,True,472.0
439,104,440,left,left,True,425.0
440,104,441,neutral,free choice,True,583.0
441,104,442,neutral,free choice,False,541.0
442,104,443,neutral,free choice,True,526.0
443,104,444,left,right,True,511.0
444,104,445,left,left,True,381.0
445,104,446,right,right,True,449.0
446,104,447,neutral,free choice,False,615.0
447,104,448,right,right,True,471.0
448,104,449,neutral,free choice,False,613.0
449,104,450,right,left,True,515.0
450,104,451,neutral,free choice,False,495.0
451,104,452,neutral,free choice,True,663.0
452,104,453,neutral,free choice,False,375.0
453,104,454,neutral,free choice,True,595.0
454,104,455,left,right,True,395.0
455,104,456,neutral,free choice,True,295.0
456,104,457,neutral,free choice,False,407.0
457,104,458,neutral,free choice,False,409.0
458,104,459,neutral,free choice,False,439.0
459,104,460,neutral,free choice,True,395.0
460,104,461,neutral,free choice,True,309.0
461,104,462,left,right,False,283.0
462,104,463,left,left,True,419.0
463,104,464,neutral,free choice,True,347.0
464,104,465,right,right,True,429.0
465,104,466,neutral,free choice,False,619.0
466,104,467,right,left,True,431.0
467,104,468,left,right,True,340.0
468,104,469,left,,True,708.0
469,104,470,right,,True,478.0
470,104,471,right,,False,198.0
471,104,472,right,,False,372.0
472,104,473,left,,False,226.0
473,104,474,right,,False,205.0
474,104,475,left,,True,425.0
475,104,476,left,,False,385.0
476,104,477,left,,False,361.0
477,104,478,left,,True,3445.0
478,104,479,left,,False,273.0
479,104,480,right,,False,414.0
480,104,481,right,,False,340.0
481,104,482,right,,True,484.0
482,104,483,left,,False,476.0
483,104,484,left,,False,278.0
484,104,485,right,,True,312.0
485,104,486,right,,False,586.0
486,104,487,right,,True,601.0
487,104,488,left,,False,465.0
488,104,489,left,,False,892.0
489,104,490,left,,False,999.0
490,104,491,left,,False,482.0
491,104,492,left,,True,438.0
492,104,493,right,,True,546.0
493,104,494,right,,False,394.0
494,104,495,left,,False,556.0
495,104,496,right,,False,298.0
496,104,497,left,,True,416.0
497,104,498,right,,False,246.0
498,104,499,left,,False,290.0
499,104,500,left,,True,312.0
500,104,501,right,,False,865.0
501,104,502,right,,True,236.0
502,104,503,left,,False,366.0
503,104,504,right,,False,362.0
504,104,505,left,,False,322.0
505,104,506,right,,False,342.0
506,104,507,right,,False,446.0
507,104,508,right,,False,410.0
508,104,509,right,,True,440.0
509,104,510,left,,False,272.0
510,104,511,left,,False,262.0
511,104,512,right,,False,258.0
512,104,513,right,,False,368.0
513,104,514,right,,False,383.0
514,104,515,right,,True,226.0
515,104,516,left,,False,318.0
516,104,517,left,,True,306.0
517,104,518,left,,True,474.0
1,105,2,right,left,True,441
2,105,3,left,right,True,476
3,105,4,left,right,True,396
4,105,5,left,left,True,396
5,105,6,right,right,True,428
6,105,7,right,right,True,354
7,105,8,right,right,True,334
8,105,9,right,left,False,318
9,105,10,left,right,True,442
10,105,11,left,left,True,418
11,105,12,left,left,True,418
12,105,13,right,left,True,422
13,105,14,right,right,True,486
14,105,15,left,right,True,520
15,105,16,left,left,True,408
17,105,18,right,free choice,False,728
18,105,19,right,left,True,422
19,105,20,right,left,False,314
20,105,21,left,free choice,True,542
21,105,22,left,free choice,True,750
22,105,23,right,free choice,False,676
23,105,24,left,free choice,True,484
24,105,25,right,right,True,427
25,105,26,left,left,True,361
26,105,27,left,right,True,445
27,105,28,left,right,True,419
28,105,29,left,left,True,379
29,105,30,left,left,True,302
30,105,31,right,right,True,402
31,105,32,left,free choice,True,522
32,105,33,right,free choice,False,478
33,105,34,left,free choice,True,430
34,105,35,right,right,True,496
35,105,36,right,free choice,False,457
36,105,37,right,left,True,396
37,105,38,left,free choice,True,480
38,105,39,left,right,True,428
39,105,40,right,right,True,438
40,105,41,left,left,True,298
41,105,42,right,free choice,False,370
42,105,43,right,left,True,400
43,105,44,left,free choice,True,296
44,105,45,right,free choice,False,368
45,105,46,right,free choice,False,334
46,105,47,left,free choice,False,380
47,105,48,left,right,False,452
48,105,49,right,right,True,393
49,105,50,left,right,False,354
50,105,51,right,left,True,419
51,105,52,right,left,True,443
52,105,53,right,left,True,475
53,105,54,right,left,True,439
54,105,55,right,left,True,459
55,105,56,right,right,True,351
56,105,57,left,left,True,345
57,105,58,right,right,True,511
58,105,59,right,left,True,457
59,105,60,right,left,True,461
60,105,61,left,left,True,369
61,105,62,left,left,True,430
62,105,63,left,left,True,380
63,105,64,right,right,True,500
64,105,65,left,right,True,459
65,105,66,right,left,True,480
66,105,67,left,right,True,431
67,105,68,right,right,True,421
68,105,69,left,right,True,417
69,105,70,right,right,True,353
70,105,71,left,right,True,435
71,105,72,left,left,True,519
72,105,73,right,right,True,323
73,105,74,right,right,True,327
74,105,75,right,left,True,473
75,105,76,left,left,True,391
76,105,77,right,right,True,353
77,105,78,right,right,True,363
78,105,79,left,right,True,423
79,105,80,left,left,True,395
80,105,81,right,right,True,451
81,105,82,left,left,True,377
82,105,83,left,left,True,321
83,105,84,right,left,True,453
84,105,85,left,right,True,391
85,105,86,right,left,True,373
86,105,87,left,right,True,415
87,105,88,right,right,True,399
88,105,89,left,left,True,351
89,105,90,left,right,True,389
90,105,91,right,right,True,351
91,105,92,left,left,True,384
92,105,93,left,right,True,440
93,105,94,left,left,True,440
94,105,95,right,right,True,436
95,105,96,left,right,False,300
96,105,97,left,left,True,468
97,105,98,left,right,True,402
98,105,99,right,left,True,473
99,105,100,right,left,True,479
100,105,101,left,left,True,375
101,105,102,left,right,True,435
102,105,103,right,right,True,376
103,105,104,right,left,True,447
104,105,105,left,right,True,409
105,105,106,left,right,True,427
106,105,107,left,left,True,413
107,105,108,right,left,False,305
108,105,109,right,free choice,False,649
109,105,110,right,right,True,475
110,105,111,right,right,True,379
111,105,112,right,free choice,True,411
112,105,113,right,free choice,False,549
113,105,114,right,free choice,False,547
114,105,115,left,left,True,416
115,105,116,left,free choice,False,449
116,105,117,left,free choice,False,442
117,105,118,right,free choice,True,490
118,105,119,left,right,True,392
119,105,120,right,free choice,True,458
120,105,121,left,free choice,False,422
121,105,122,right,free choice,False,450
122,105,123,right,right,True,472
123,105,124,left,free choice,False,430
124,105,125,right,left,True,444
125,105,126,left,right,True,446
126,105,127,left,free choice,False,448
127,105,128,left,free choice,True,510
128,105,129,right,right,True,448
129,105,130,right,free choice,False,478
130,105,131,left,free choice,True,338
131,105,132,left,left,True,417
132,105,133,right,free choice,False,425
133,105,134,left,free choice,False,363
134,105,135,left,free choice,False,423
135,105,136,left,right,True,206
136,105,137,left,right,True,547
137,105,138,right,free choice,True,437
138,105,139,right,left,True,397
139,105,140,left,right,True,429
140,105,141,right,right,True,307
141,105,142,left,free choice,False,397
142,105,143,right,left,True,429
143,105,144,right,right,True,371
144,105,145,left,left,True,464
145,105,146,left,right,False,310
146,105,147,right,free choice,True,516
147,105,148,left,free choice,False,640
148,105,149,right,left,True,428
149,105,150,right,right,True,402
150,105,151,right,free choice,True,418
151,105,152,left,right,True,393
152,105,153,left,left,False,308
153,105,154,right,free choice,False,498
154,105,155,left,free choice,True,566
155,105,156,left,free choice,False,444
156,105,157,right,free choice,True,386
157,105,158,right,left,True,420
158,105,159,right,right,True,396
159,105,160,right,free choice,False,504
160,105,161,right,left,True,492
161,105,162,right,free choice,True,466
162,105,163,left,free choice,False,440
163,105,164,right,left,True,472
164,105,165,right,right,True,366
165,105,166,left,left,True,320
166,105,167,left,left,True,356
167,105,168,left,free choice,True,535
168,105,169,left,right,True,451
169,105,170,right,left,True,457
170,105,171,right,right,True,381
171,105,172,left,left,True,417
172,105,173,right,right,True,532
173,105,174,left,free choice,True,498
174,105,175,right,free choice,True,410
175,105,176,left,free choice,False,288
176,105,177,left,free choice,False,278
177,105,178,right,right,True,174
178,105,179,right,free choice,False,422
179,105,180,left,free choice,True,382
180,105,181,left,free choice,False,306
181,105,182,right,left,True,436
182,105,183,right,left,True,444
183,105,184,left,right,True,418
184,105,185,left,free choice,False,442
185,105,186,left,free choice,False,446
186,105,187,left,left,True,396
187,105,188,left,free choice,False,424
188,105,189,right,left,True,454
189,105,190,left,right,True,402
190,105,191,left,left,True,422
191,105,192,right,left,True,430
192,105,193,right,right,True,452
193,105,194,right,free choice,False,482
194,105,195,left,free choice,False,534
195,105,196,left,left,True,388
196,105,197,right,left,True,450
197,105,198,left,free choice,True,308
198,105,199,left,free choice,True,454
199,105,200,right,free choice,True,407
200,105,201,right,free choice,True,169
201,105,202,left,free choice,False,307
202,105,203,left,right,True,421
203,105,204,left,left,True,421
204,105,205,left,right,True,381
205,105,206,left,left,True,328
206,105,207,right,free choice,True,430
207,105,208,right,right,True,408
208,105,209,left,free choice,False,450
209,105,210,left,left,True,417
210,105,211,right,free choice,True,328
211,105,212,left,left,True,326
212,105,213,left,right,False,336
213,105,214,right,left,True,440
215,105,216,right,free choice,False,552
216,105,217,right,free choice,False,478
217,105,218,left,right,True,394
218,105,219,left,free choice,True,524
219,105,220,right,free choice,True,448
220,105,221,left,free choice,False,498
221,105,222,left,right,True,414
222,105,223,right,free choice,True,498
223,105,224,right,free choice,True,482
224,105,225,right,free choice,True,262
225,105,226,left,left,True,354
226,105,227,right,right,True,347
227,105,228,right,free choice,True,393
228,105,229,left,free choice,False,495
229,105,230,right,free choice,True,279
230,105,231,right,free choice,True,322
231,105,232,left,free choice,False,358
232,105,233,left,left,True,470
233,105,234,right,free choice,False,509
234,105,235,left,free choice,False,407
235,105,236,left,right,False,336
236,105,237,right,free choice,True,424
237,105,238,left,free choice,False,390
238,105,239,right,free choice,True,408
239,105,240,left,free choice,False,438
240,105,241,left,right,True,410
241,105,242,left,left,True,364
242,105,243,left,right,True,400
243,105,244,left,right,True,415
244,105,245,left,left,True,355
245,105,246,left,free choice,False,447
246,105,247,left,right,True,401
247,105,248,right,right,True,341
248,105,249,right,left,True,485
249,105,250,right,right,True,339
250,105,251,left,free choice,False,451
251,105,252,right,left,True,473
252,105,253,left,free choice,False,483
253,105,254,left,left,True,355
254,105,255,left,right,True,383
255,105,256,left,free choice,False,519
256,105,257,right,right,True,343
257,105,258,left,free choice,False,435
258,105,259,left,left,True,415
259,105,260,right,right,True,311
260,105,261,left,free choice,False,409
261,105,262,right,right,True,331
262,105,263,left,left,True,389
263,105,264,right,free choice,True,279
264,105,265,right,free choice,True,475
265,105,266,left,right,True,383
266,105,267,right,free choice,True,459
267,105,268,right,right,True,346
268,105,269,right,left,True,508
269,105,270,right,free choice,True,286
270,105,271,right,left,False,284
271,105,272,left,right,True,426
272,105,273,left,left,True,335
273,105,274,right,free choice,True,495
274,105,275,right,right,True,403
275,105,276,right,left,True,393
276,105,277,right,free choice,True,391
277,105,278,left,right,True,425
278,105,279,left,free choice,False,543
279,105,280,right,right,False,435
280,105,281,right,left,True,443
281,105,282,right,left,True,487
282,105,283,left,right,True,357
283,105,284,right,right,True,465
284,105,285,left,left,True,391
285,105,286,right,left,True,501
286,105,287,left,free choice,False,517
287,105,288,left,free choice,False,453
288,105,289,left,free choice,False,403
289,105,290,left,free choice,False,423
290,105,291,right,right,True,375
291,105,292,right,left,True,445
292,105,293,left,left,True,455
293,105,294,left,right,True,407
294,105,295,right,free choice,True,477
295,105,296,right,free choice,True,481
296,105,297,right,left,True,389
297,105,298,left,free choice,True,355
298,105,299,right,free choice,False,477
299,105,300,left,left,False,436
300,105,301,right,right,True,480
301,105,302,right,free choice,True,504
302,105,303,left,right,True,428
303,105,304,right,left,True,429
304,105,305,right,right,True,339
305,105,306,left,free choice,False,463
306,105,307,left,free choice,False,467
307,105,308,right,free choice,True,398
308,105,309,left,free choice,False,457
309,105,310,left,free choice,False,421
310,105,311,right,free choice,True,453
311,105,312,left,free choice,False,423
312,105,313,right,free choice,False,469
313,105,314,right,free choice,False,391
314,105,315,left,right,True,433
315,105,316,left,left,True,371
316,105,317,right,right,True,385
317,105,318,left,free choice,False,555
318,105,319,right,left,True,439
319,105,320,right,free choice,True,551
320,105,321,right,right,True,305
321,105,322,left,free choice,False,411
322,105,323,left,left,True,437
323,105,324,right,right,True,357
324,105,325,right,free choice,True,377
325,105,326,right,free choice,True,381
326,105,327,left,left,True,328
327,105,328,left,left,True,318
328,105,329,right,free choice,True,533
329,105,330,left,right,True,392
330,105,331,right,free choice,True,434
331,105,332,right,free choice,True,302
332,105,333,right,free choice,True,434
333,105,334,left,free choice,False,438
334,105,335,right,left,True,358
335,105,336,left,free choice,True,346
336,105,337,right,free choice,False,444
337,105,338,right,free choice,True,314
338,105,339,right,free choice,False,396
339,105,340,left,free choice,True,404
340,105,341,right,left,True,401
341,105,342,left,free choice,True,301
342,105,343,left,free choice,False,321
343,105,344,left,right,True,389
344,105,345,right,left,True,384
345,105,346,left,left,True,351
346,105,347,left,free choice,False,429
347,105,348,right,free choice,True,399
348,105,349,neutral,free choice,True,456
349,105,350,neutral,free choice,True,380
350,105,351,left,right,True,328
351,105,352,right,right,True,354
352,105,353,neutral,free choice,True,300
353,105,354,neutral,free choice,True,292
354,105,355,neutral,free choice,False,378
355,105,356,right,left,False,290
356,105,357,left,left,True,344
357,105,358,neutral,free choice,False,348
358,105,359,right,right,True,302
359,105,360,neutral,free choice,False,378
360,105,361,left,left,True,302
361,105,362,neutral,free choice,True,362
362,105,363,neutral,free choice,False,434
363,105,364,left,left,True,362
364,105,365,neutral,free choice,True,346
365,105,366,right,right,True,300
366,105,367,neutral,free choice,False,483
367,105,368,left,left,True,295
368,105,369,right,left,True,403
369,105,370,left,right,False,305
370,105,371,right,left,True,436
371,105,372,right,right,True,322
372,105,373,neutral,free choice,False,382
373,105,374,right,left,True,506
374,105,375,left,right,True,432
375,105,376,left,left,True,330
376,105,377,left,left,True,440
377,105,378,neutral,free choice,True,464
378,105,379,right,right,True,398
379,105,380,neutral,free choice,True,422
380,105,381,neutral,free choice,False,442
381,105,382,neutral,free choice,True,442
382,105,383,left,left,True,418
383,105,384,right,right,True,318
384,105,385,left,right,True,414
385,105,386,neutral,free choice,False,474
386,105,387,left,left,True,422
387,105,388,right,right,True,338
388,105,389,neutral,free choice,True,422
389,105,390,neutral,free choice,True,770
390,105,391,right,right,True,384
391,105,392,right,left,True,484
392,105,393,neutral,free choice,True,436
393,105,394,neutral,free choice,True,512
394,105,395,neutral,free choice,True,366
395,105,396,neutral,free choice,True,300
396,105,397,neutral,free choice,True,348
398,105,399,right,right,True,365
399,105,400,neutral,free choice,True,355
400,105,401,neutral,free choice,True,359
401,105,402,neutral,free choice,True,343
402,105,403,neutral,free choice,False,410
403,105,404,neutral,free choice,False,400
404,105,405,left,right,True,552
405,105,406,neutral,free choice,True,398
406,105,407,neutral,free choice,False,459
407,105,408,neutral,free choice,True,342
409,105,410,left,right,True,466
410,105,411,neutral,free choice,True,308
411,105,412,right,right,True,318
412,105,413,right,left,True,426
413,105,414,right,right,True,360
414,105,415,right,right,True,336
415,105,416,neutral,free choice,True,392
416,105,417,left,left,True,390
417,105,418,right,right,True,320
418,105,419,neutral,free choice,True,396
419,105,420,left,right,True,504
420,105,421,neutral,free choice,True,524
421,105,422,neutral,free choice,True,388
422,105,423,right,left,True,406
423,105,424,left,right,True,376
424,105,425,neutral,free choice,True,416
425,105,426,left,right,True,387
426,105,427,left,left,True,365
427,105,428,left,right,True,415
428,105,429,neutral,free choice,True,403
429,105,430,neutral,free choice,True,245
430,105,431,left,right,True,387
431,105,432,left,left,True,441
432,105,433,left,left,True,437
433,105,434,neutral,free choice,True,477
434,105,435,right,right,True,325
435,105,436,right,left,False,291
436,105,437,neutral,free choice,True,405
437,105,438,neutral,free choice,True,439
438,105,439,neutral,free choice,True,419
439,105,440,neutral,free choice,False,350
440,105,441,right,right,True,424
441,105,442,neutral,free choice,True,430
442,105,443,neutral,free choice,True,404
443,105,444,right,left,True,387
444,105,445,left,right,True,376
445,105,446,left,left,True,380
446,105,447,left,right,True,496
447,105,448,neutral,free choice,True,456
448,105,449,right,left,True,440
449,105,450,neutral,free choice,True,340
450,105,451,right,left,True,384
451,105,452,neutral,free choice,True,488
452,105,453,neutral,free choice,True,453
453,105,454,neutral,free choice,True,495
454,105,455,neutral,free choice,True,475
455,105,456,left,right,True,383
456,105,457,neutral,free choice,True,363
457,105,458,left,left,True,363
458,105,459,left,left,True,355
459,105,460,neutral,free choice,True,395
460,105,461,left,right,True,379
461,105,462,neutral,free choice,True,403
462,105,463,neutral,free choice,True,365
463,105,464,neutral,free choice,True,391
464,105,465,neutral,free choice,True,385
465,105,466,right,left,True,443
466,105,467,neutral,free choice,True,363
467,105,468,right,left,True,471
468,105,469,right,,True,1448
469,105,470,right,,False,934
470,105,471,left,,True,1046
471,105,472,left,,True,740
472,105,473,right,,False,1268
473,105,474,right,,True,660
474,105,475,left,,True,602
475,105,476,right,,True,504
476,105,477,left,,True,722
477,105,478,right,,False,568
478,105,479,right,,True,1440
479,105,480,left,,True,2926
480,105,481,left,,False,1368
481,105,482,right,,True,1946
482,105,483,left,,True,1103
483,105,484,right,,True,6173
484,105,485,right,,True,4588
485,105,486,right,,True,1492
486,105,487,right,,True,1920
487,105,488,left,,False,554
488,105,489,left,,True,4226
489,105,490,left,,True,652
490,105,491,right,,True,883
491,105,492,right,,True,2889
492,105,493,left,,True,1573
493,105,494,right,,False,905
494,105,495,left,,False,991
495,105,496,right,,True,3559
496,105,497,left,,True,644
497,105,498,right,,True,3630
498,105,499,right,,True,358
499,105,500,right,,False,4829
500,105,501,left,,False,1533
501,105,502,left,,False,7789
502,105,503,left,,True,1009
503,105,504,left,,True,809
504,105,505,right,,True,617
505,105,506,left,,False,5485
506,105,507,right,,True,598
507,105,508,left,,False,2801
508,105,509,left,,True,1099
509,105,510,right,,True,4937
510,105,511,left,,True,2573
511,105,512,left,,True,789
512,105,513,left,,True,1505
513,105,514,left,,False,2303
514,105,515,right,,False,805
515,105,516,right,,True,2962
516,105,517,right,,True,560
517,105,518,left,,True,898
2,106,3,left,left,False,487
6,106,7,left,right,True,557
8,106,9,right,right,False,513
10,106,11,right,right,False,497
13,106,14,left,right,False,517
16,106,17,right,left,False,357
19,106,20,right,left,False,224
21,106,22,left,free choice,True,635
24,106,25,left,right,True,518
25,106,26,right,left,True,418
26,106,27,left,free choice,False,826
27,106,28,right,right,True,484
28,106,29,left,free choice,False,580
29,106,30,left,right,True,388
30,106,31,left,free choice,True,282
31,106,32,left,left,True,562
32,106,33,right,right,True,426
33,106,34,right,free choice,True,572
34,106,35,right,free choice,True,542
35,106,36,right,free choice,True,541
36,106,37,left,right,True,409
37,106,38,right,free choice,True,531
38,106,39,left,left,True,449
39,106,40,right,right,True,451
40,106,41,right,free choice,True,537
41,106,42,left,free choice,False,600
42,106,43,left,left,True,424
43,106,44,left,free choice,False,547
44,106,45,right,free choice,True,488
45,106,46,left,free choice,False,486
46,106,47,left,left,True,412
47,106,48,right,free choice,True,686
49,106,50,left,left,True,445
50,106,51,left,left,True,452
51,106,52,left,left,True,441
52,106,53,right,right,True,449
53,106,54,right,right,True,423
54,106,55,left,right,True,417
55,106,56,right,left,True,469
56,106,57,left,right,True,419
57,106,58,left,left,True,367
58,106,59,left,right,False,361
59,106,60,left,right,True,469
60,106,61,right,right,True,463
61,106,62,left,left,True,451
62,106,63,left,left,True,377
63,106,64,right,left,False,301
64,106,65,right,right,True,384
65,106,66,right,left,True,450
66,106,67,left,left,True,448
67,106,68,left,right,True,386
68,106,69,left,right,True,460
69,106,70,right,right,True,440
70,106,71,right,left,True,464
71,106,72,left,left,True,390
72,106,73,right,left,True,496
73,106,74,right,right,True,497
74,106,75,left,left,True,440
75,106,76,right,left,True,396
76,106,77,right,left,True,432
77,106,78,right,left,True,450
78,106,79,left,left,True,416
79,106,80,left,left,True,372
80,106,81,right,right,True,406
81,106,82,left,right,True,472
82,106,83,left,right,False,422
84,106,85,left,right,True,458
85,106,86,right,left,True,542
86,106,87,left,left,True,450
87,106,88,right,right,True,448
88,106,89,left,right,True,469
89,106,90,left,right,True,431
90,106,91,left,right,True,473
91,106,92,right,left,False,323
92,106,93,right,left,True,489
93,106,94,left,right,True,502
94,106,95,right,right,True,350
95,106,96,right,right,True,473
96,106,97,right,right,True,362
97,106,98,right,left,True,450
98,106,99,right,right,True,360
99,106,100,right,right,True,380
100,106,101,left,left,True,388
101,106,102,right,left,True,538
102,106,103,left,right,True,390
103,106,104,right,left,True,460
104,106,105,right,right,True,348
105,106,106,right,left,True,450
106,106,107,left,left,False,336
107,106,108,left,left,True,408
108,106,109,right,left,True,460
109,106,110,left,free choice,True,555
110,106,111,left,free choice,True,619
111,106,112,right,left,True,507
112,106,113,right,right,True,517
113,106,114,left,left,True,477
114,106,115,left,right,True,457
115,106,116,right,free choice,True,669
116,106,117,right,right,True,444
117,106,118,left,left,True,403
118,106,119,left,free choice,True,525
119,106,120,left,free choice,True,447
120,106,121,right,free choice,False,549
121,106,122,right,left,True,487
122,106,123,left,free choice,True,509
123,106,124,left,right,True,451
124,106,125,left,left,True,409
125,106,126,left,free choice,True,367
126,106,127,right,free choice,False,328
127,106,128,right,right,True,394
128,106,129,left,left,True,384
129,106,130,right,right,True,472
130,106,131,right,free choice,True,522
131,106,132,right,left,True,482
132,106,133,right,free choice,False,502
133,106,134,right,right,True,338
134,106,135,right,free choice,True,385
135,106,136,right,free choice,True,411
136,106,137,left,free choice,False,525
137,106,138,left,right,False,467
138,106,139,left,left,True,501
139,106,140,right,free choice,True,517
140,106,141,right,free choice,True,354
141,106,142,right,free choice,True,455
142,106,143,left,right,True,475
143,106,144,left,free choice,False,467
144,106,145,left,free choice,False,449
145,106,146,right,free choice,True,399
146,106,147,left,free choice,False,399
147,106,148,right,free choice,True,295
148,106,149,right,free choice,True,215
149,106,150,right,right,True,199
150,106,151,right,left,False,274
151,106,152,left,right,True,446
152,106,153,right,left,False,384
153,106,154,left,free choice,False,534
154,106,155,right,free choice,True,342
155,106,156,right,right,True,242
156,106,157,left,left,False,162
157,106,158,left,left,True,344
158,106,159,left,free choice,True,250
159,106,160,left,free choice,True,340
160,106,161,right,free choice,False,420
161,106,162,right,free choice,True,232
162,106,163,left,free choice,False,251
163,106,164,right,right,True,256
164,106,165,left,free choice,False,144
165,106,166,right,free choice,True,238
166,106,167,left,free choice,False,226
167,106,168,left,left,False,232
168,106,169,right,free choice,True,469
169,106,170,right,free choice,True,427
170,106,171,right,free choice,True,289
171,106,172,left,free choice,False,231
172,106,173,right,left,False,273
173,106,174,right,right,False,493
174,106,175,left,free choice,False,573
175,106,176,right,free choice,True,349
176,106,177,right,left,False,223
177,106,178,left,free choice,False,513
178,106,179,left,free choice,False,235
179,106,180,right,left,False,251
180,106,181,left,right,False,313
181,106,182,right,free choice,True,332
182,106,183,right,free choice,True,402
183,106,184,right,free choice,True,456
184,106,185,left,free choice,False,440
