,Subject,Trial,Prime,Cue,Resp,RT
1,101,2,L,R,R,479.0
3,101,4,R,L,L,383.0
4,101,5,L,R,R,423.0
5,101,6,L,R,R,413.0
6,101,7,R,L,L,409.0
7,101,8,R,R,R,343.0
8,101,9,L,R,R,383.0
9,101,10,L,L,L,399.0
10,101,11,R,R,R,339.0
11,101,12,R,L,L,427.0
12,101,13,L,L,L,453.0
13,101,14,R,R,R,427.0
14,101,15,R,L,L,456.0
15,101,16,L,L,L,336.0
16,101,17,R,R,R,452.0
17,101,18,L,L,L,381.0
18,101,19,L,L,L,398.0
19,101,20,L,FC,R,566.0
20,101,21,R,FC,R,736.0
21,101,22,L,R,R,492.0
22,101,23,R,FC,L,550.0
23,101,24,L,FC,L,596.0
24,101,25,L,FC,L,628.0
25,101,26,L,FC,L,606.0
26,101,27,L,R,R,472.0
27,101,28,R,L,L,398.0
28,101,29,L,R,R,434.0
29,101,30,R,R,R,422.0
30,101,31,L,L,L,382.0
31,101,32,R,FC,L,602.0
32,101,33,L,FC,L,614.0
33,101,34,R,R,R,400.0
34,101,35,R,L,L,451.0
35,101,36,R,L,L,421.0
36,101,37,L,R,R,481.0
37,101,38,R,FC,L,565.0
38,101,39,R,FC,R,623.0
39,101,40,R,R,R,559.0
40,101,41,R,L,L,479.0
41,101,42,L,FC,L,531.0
42,101,43,L,FC,R,493.0
43,101,44,R,FC,R,547.0
44,101,45,R,FC,R,536.0
45,101,46,L,FC,L,488.0
46,101,47,R,FC,L,486.0
47,101,48,L,L,L,528.0
48,101,49,R,L,L,414.0
49,101,50,R,R,R,373.0
50,101,51,L,L,L,376.0
51,101,52,L,R,R,476.0
52,101,53,R,R,R,428.0
53,101,54,L,R,R,474.0
54,101,55,L,L,L,422.0
55,101,56,R,L,L,482.0
56,101,57,R,R,R,458.0
58,101,59,L,L,L,410.0
59,101,60,R,L,L,496.0
60,101,61,L,L,L,472.0
61,101,62,R,L,L,450.0
62,101,63,L,L,L,536.0
63,101,64,L,L,L,436.0
64,101,65,R,L,L,428.0
65,101,66,R,L,L,481.0
66,101,67,R,R,R,529.0
67,101,68,R,R,R,479.0
68,101,69,L,R,R,391.0
69,101,70,R,L,L,437.0
70,101,71,R,R,R,485.0
71,101,72,L,L,L,411.0
72,101,73,R,R,R,445.0
73,101,74,L,L,L,374.0
74,101,75,L,L,L,463.0
75,101,76,R,L,L,423.0
76,101,77,R,R,R,447.0
77,101,78,L,L,L,385.0
78,101,79,R,L,L,445.0
79,101,80,L,R,R,475.0
80,101,81,L,L,L,403.0
81,101,82,R,L,L,427.0
82,101,83,L,L,L,341.0
83,101,84,R,R,R,433.0
84,101,85,R,R,R,443.0
85,101,86,R,R,R,495.0
86,101,87,R,R,R,486.0
87,101,88,L,R,R,444.0
88,101,89,L,R,R,466.0
89,101,90,L,L,L,399.0
90,101,91,R,L,L,403.0
91,101,92,L,R,R,405.0
92,101,93,R,L,L,468.0
93,101,94,L,R,R,418.0
94,101,95,R,L,L,429.0
95,101,96,R,R,R,351.0
96,101,97,L,R,R,445.0
97,101,98,L,R,R,435.0
98,101,99,L,L,L,387.0
99,101,100,R,L,L,413.0
100,101,101,L,R,R,397.0
101,101,102,R,R,R,425.0
102,101,103,L,R,R,375.0
103,101,104,L,R,R,415.0
104,101,105,L,R,R,451.0
105,101,106,R,L,L,477.0
106,101,107,R,R,R,461.0
107,101,108,L,L,L,413.0
108,101,109,L,L,L,437.0
109,101,110,R,L,L,472.0
110,101,111,L,R,R,387.0
111,101,112,L,FC,R,552.0
112,101,113,R,L,L,446.0
113,101,114,R,L,L,364.0
114,101,115,R,FC,R,584.0
115,101,116,L,R,R,426.0
116,101,117,R,FC,L,468.0
117,101,118,R,L,L,418.0
118,101,119,L,R,R,490.0
119,101,120,L,L,L,392.0
120,101,121,L,FC,R,522.0
121,101,122,L,FC,L,474.0
122,101,123,R,FC,R,498.0
123,101,124,R,L,L,422.0
124,101,125,R,R,R,422.0
125,101,126,R,FC,L,502.0
126,101,127,L,FC,R,674.0
127,101,128,R,L,L,444.0
128,101,129,R,FC,R,466.0
129,101,130,L,L,L,396.0
130,101,131,L,R,R,424.0
131,101,132,R,FC,L,398.0
132,101,133,R,FC,R,510.0
133,101,134,L,FC,L,496.0
134,101,135,L,L,L,511.0
135,101,136,L,R,R,424.0
136,101,137,L,L,L,446.0
137,101,138,R,FC,R,440.0
138,101,139,L,R,L,384.0
139,101,140,L,FC,R,562.0
140,101,141,L,R,R,503.0
141,101,142,L,FC,L,595.0
142,101,143,R,L,L,530.0
143,101,144,R,FC,R,536.0
144,101,145,R,R,R,480.0
145,101,146,R,R,R,440.0
146,101,147,R,L,L,468.0
147,101,148,L,FC,R,474.0
148,101,149,L,R,R,490.0
149,101,150,R,R,R,436.0
150,101,151,L,FC,L,436.0
151,101,152,R,FC,L,536.0
152,101,153,L,L,L,540.0
153,101,154,R,FC,R,524.0
154,101,155,R,FC,R,632.0
155,101,156,R,R,R,486.0
156,101,157,L,FC,L,471.0
157,101,158,L,R,R,505.0
158,101,159,L,L,L,427.0
159,101,160,L,FC,R,625.0
160,101,161,R,FC,L,527.0
161,101,162,R,FC,R,561.0
162,101,163,R,FC,L,557.0
163,101,164,R,R,R,513.0
164,101,165,L,FC,L,523.0
165,101,166,R,FC,R,659.0
166,101,167,R,FC,L,671.0
167,101,168,R,R,R,517.0
168,101,169,R,FC,L,645.0
170,101,171,R,FC,R,491.0
171,101,172,R,R,R,533.0
172,101,173,L,R,R,467.0
173,101,174,L,L,L,461.0
174,101,175,L,FC,R,505.0
175,101,176,L,FC,L,439.0
176,101,177,R,R,R,419.0
178,101,179,L,FC,L,418.0
179,101,180,R,R,R,382.0
180,101,181,L,FC,L,422.0
181,101,182,R,FC,R,418.0
182,101,183,L,FC,L,418.0
183,101,184,L,L,L,502.0
184,101,185,L,R,R,381.0
186,101,187,R,R,R,417.0
187,101,188,R,FC,L,405.0
188,101,189,L,FC,R,411.0
189,101,190,L,FC,L,341.0
190,101,191,R,R,R,370.0
191,101,192,R,FC,L,412.0
192,101,193,L,L,L,493.0
193,101,194,L,FC,R,355.0
194,101,195,L,FC,L,447.0
195,101,196,R,FC,R,325.0
196,101,197,R,R,R,359.0
197,101,198,R,FC,L,383.0
198,101,199,R,FC,R,351.0
199,101,200,R,L,L,409.0
200,101,201,R,FC,R,307.0
201,101,202,L,FC,R,460.0
202,101,203,R,L,L,368.0
203,101,204,R,FC,R,322.0
204,101,205,L,R,R,414.0
205,101,206,R,L,L,446.0
206,101,207,L,FC,R,432.0
207,101,208,L,R,R,394.0
208,101,209,R,L,L,356.0
209,101,210,R,L,L,452.0
210,101,211,L,FC,R,422.0
211,101,212,L,FC,L,406.0
212,101,213,L,FC,R,452.0
213,101,214,L,FC,L,482.0
214,101,215,R,FC,R,398.0
215,101,216,L,R,R,434.0
216,101,217,R,FC,L,414.0
217,101,218,L,L,L,422.0
218,101,219,L,L,L,462.0
219,101,220,R,R,R,426.0
220,101,221,L,L,L,412.0
221,101,222,L,FC,R,421.0
222,101,223,L,L,L,401.0
223,101,224,R,FC,R,425.0
224,101,225,R,R,R,430.0
225,101,226,L,FC,L,472.0
226,101,227,L,L,L,414.0
227,101,228,L,R,R,382.0
228,101,229,R,FC,R,522.0
229,101,230,R,R,R,415.0
230,101,231,R,R,R,391.0
231,101,232,L,L,L,405.0
232,101,233,L,R,R,430.0
233,101,234,L,FC,L,616.0
234,101,235,R,L,L,444.0
235,101,236,R,FC,R,390.0
236,101,237,L,L,L,364.0
237,101,238,L,FC,R,381.0
238,101,239,L,R,R,421.0
239,101,240,R,L,L,400.0
240,101,241,L,L,L,428.0
241,101,242,L,R,R,366.0
242,101,243,R,L,L,340.0
243,101,244,R,L,L,488.0
244,101,245,L,FC,R,401.0
245,101,246,L,FC,R,485.0
246,101,247,R,R,R,431.0
247,101,248,L,FC,L,509.0
248,101,249,R,L,L,439.0
249,101,250,R,R,R,379.0
250,101,251,L,FC,L,475.0
251,101,252,L,FC,R,403.0
252,101,253,R,L,L,385.0
253,101,254,R,FC,R,431.0
254,101,255,R,FC,L,473.0
255,101,256,R,FC,R,347.0
256,101,257,R,L,L,413.0
257,101,258,R,FC,R,443.0
258,101,259,L,FC,L,507.0
259,101,260,R,R,R,389.0
260,101,261,R,FC,L,375.0
261,101,262,R,FC,R,443.0
262,101,263,R,L,L,387.0
263,101,264,R,R,R,369.0
264,101,265,R,FC,L,423.0
265,101,266,L,R,R,371.0
266,101,267,L,L,L,509.0
267,101,268,R,FC,R,358.0
268,101,269,L,FC,R,610.0
269,101,270,L,R,R,428.0
270,101,271,R,FC,L,478.0
271,101,272,R,FC,R,482.0
272,101,273,R,FC,L,422.0
273,101,274,R,L,L,466.0
274,101,275,R,FC,R,420.0
275,101,276,L,R,R,400.0
276,101,277,L,R,R,436.0
277,101,278,R,L,L,448.0
278,101,279,R,FC,R,470.0
279,101,280,L,FC,L,460.0
280,101,281,L,R,R,364.0
281,101,282,L,L,L,424.0
282,101,283,L,FC,R,474.0
283,101,284,L,R,R,448.0
284,101,285,R,FC,R,513.0
285,101,286,R,R,R,375.0
286,101,287,L,FC,L,451.0
287,101,288,R,FC,R,481.0
288,101,289,L,L,L,374.0
289,101,290,L,R,R,371.0
290,101,291,L,FC,L,492.0
291,101,292,R,R,R,386.0
292,101,293,L,FC,L,384.0
293,101,294,L,L,L,500.0
294,101,295,L,FC,R,444.0
295,101,296,L,FC,L,570.0
296,101,297,R,L,L,476.0
297,101,298,L,FC,R,424.0
298,101,299,R,R,R,418.0
299,101,300,L,L,L,442.0
300,101,301,L,FC,R,450.0
301,101,302,L,FC,L,376.0
302,101,303,R,FC,R,484.0
303,101,304,L,FC,L,562.0
304,101,305,R,R,R,426.0
305,101,306,L,R,R,468.0
306,101,307,R,FC,R,570.0
307,101,308,R,L,L,476.0
308,101,309,L,FC,R,488.0
309,101,310,L,R,R,454.0
310,101,311,R,FC,L,462.0
311,101,312,R,R,R,402.0
312,101,313,R,FC,L,469.0
313,101,314,L,L,L,495.0
314,101,315,R,FC,R,499.0
315,101,316,R,R,R,411.0
316,101,317,R,FC,R,469.0
317,101,318,R,FC,R,447.0
318,101,319,L,L,L,473.0
319,101,320,R,R,R,471.0
320,101,321,R,FC,L,673.0
321,101,322,L,FC,R,463.0
322,101,323,R,FC,L,543.0
323,101,324,R,FC,R,511.0
324,101,325,L,FC,L,441.0
325,101,326,L,L,L,521.0
326,101,327,L,R,R,429.0
327,101,328,L,FC,L,511.0
328,101,329,L,FC,R,521.0
329,101,330,L,FC,R,741.0
330,101,331,R,FC,R,493.0
331,101,332,L,L,L,427.0
332,101,333,R,R,R,397.0
333,101,334,R,L,L,469.0
334,101,335,L,L,L,466.0
335,101,336,R,R,R,447.0
336,101,337,L,FC,L,529.0
337,101,338,L,R,R,455.0
338,101,339,R,FC,L,455.0
339,101,340,L,L,L,500.0
340,101,341,R,L,L,512.0
341,101,342,L,FC,R,461.0
342,101,343,L,FC,L,545.0
343,101,344,L,FC,R,495.0
344,101,345,L,R,R,539.0
345,101,346,R,L,L,463.0
346,101,347,L,L,L,459.0
347,101,348,R,FC,R,459.0
348,101,349,N,FC,R,545.0
349,101,350,N,FC,L,656.0
350,101,351,L,L,L,456.0
351,101,352,N,FC,R,460.0
352,101,353,N,FC,L,612.0
353,101,354,L,R,R,454.0
354,101,355,L,R,R,486.0
355,101,356,L,L,L,544.0
356,101,357,R,L,L,408.0
357,101,358,N,FC,R,514.0
358,101,359,N,FC,R,520.0
359,101,360,N,FC,L,476.0
360,101,361,N,FC,R,452.0
361,101,362,R,R,R,494.0
362,101,363,N,FC,L,424.0
363,101,364,N,FC,R,406.0
364,101,365,N,FC,L,500.0
365,101,366,L,L,L,476.0
366,101,367,R,L,L,544.0
367,101,368,R,R,R,460.0
368,101,369,N,FC,L,424.0
369,101,370,R,L,L,470.0
370,101,371,N,FC,R,508.0
371,101,372,N,FC,L,462.0
372,101,373,N,FC,R,429.0
373,101,374,R,L,L,379.0
374,101,375,N,FC,R,438.0
375,101,376,L,R,R,498.0
376,101,377,N,FC,L,394.0
377,101,378,N,FC,R,392.0
378,101,379,R,R,R,446.0
379,101,380,L,L,L,388.0
380,101,381,N,FC,R,478.0
381,101,382,N,FC,L,443.0
382,101,383,N,FC,R,386.0
383,101,384,L,L,L,412.0
384,101,385,N,FC,R,466.0
385,101,386,N,FC,L,384.0
386,101,387,R,R,R,448.0
387,101,388,N,FC,L,426.0
388,101,389,N,FC,R,440.0
389,101,390,N,FC,L,492.0
390,101,391,L,L,L,490.0
391,101,392,L,L,L,480.0
392,101,393,L,R,R,460.0
393,101,394,N,FC,L,436.0
394,101,395,R,R,R,416.0
395,101,396,N,FC,L,423.0
396,101,397,R,L,L,529.0
397,101,398,N,FC,R,499.0
398,101,399,N,FC,L,475.0
399,101,400,R,R,R,415.0
400,101,401,N,FC,L,431.0
401,101,402,L,R,R,433.0
402,101,403,N,FC,L,419.0
403,101,404,R,L,L,499.0
404,101,405,N,FC,R,455.0
405,101,406,L,R,R,483.0
406,101,407,L,L,L,383.0
407,101,408,N,FC,R,403.0
408,101,409,N,FC,L,363.0
409,101,410,R,R,R,387.0
410,101,411,R,L,L,461.0
411,101,412,R,R,R,393.0
412,101,413,R,L,L,467.0
413,101,414,N,FC,R,465.0
414,101,415,R,L,L,391.0
415,101,416,L,R,R,369.0
416,101,417,N,FC,L,499.0
417,101,418,L,R,R,399.0
418,101,419,N,FC,L,467.0
419,101,420,L,L,L,480.0
420,101,421,N,FC,R,524.0
421,101,422,R,L,L,428.0
422,101,423,L,R,R,470.0
423,101,424,N,FC,L,436.0
424,101,425,R,L,L,472.0
425,101,426,L,L,L,490.0
426,101,427,N,FC,R,460.0
427,101,428,R,R,R,483.0
428,101,429,L,L,L,423.0
429,101,430,L,R,R,529.0
430,101,431,N,FC,L,443.0
431,101,432,L,R,R,501.0
432,101,433,N,FC,L,525.0
433,101,434,R,L,L,552.0
434,101,435,N,FC,R,573.0
435,101,436,N,FC,L,501.0
436,101,437,R,R,R,465.0
437,101,438,N,FC,L,499.0
438,101,439,L,L,L,567.0
439,101,440,N,FC,R,517.0
440,101,441,R,L,L,413.0
441,101,442,N,FC,R,459.0
442,101,443,L,R,R,418.0
443,101,444,N,FC,L,434.0
444,101,445,R,L,L,442.0
445,101,446,N,FC,R,382.0
446,101,447,L,L,L,362.0
447,101,448,N,FC,R,454.0
448,101,449,N,FC,L,406.0
449,101,450,N,FC,R,436.0
450,101,451,L,R,R,536.0
451,101,452,L,R,R,560.0
452,101,453,L,L,L,480.0
453,101,454,R,R,R,464.0
454,101,455,R,R,R,442.0
455,101,456,L,L,L,426.0
456,101,457,N,FC,R,548.0
457,101,458,N,FC,L,458.0
458,101,459,N,FC,R,406.0
459,101,460,N,FC,L,412.0
460,101,461,N,FC,R,434.0
461,101,462,L,R,R,474.0
462,101,463,R,R,R,468.0
463,101,464,R,L,L,426.0
464,101,465,R,R,R,452.0
465,101,466,N,FC,L,493.0
466,101,467,N,FC,R,411.0
467,101,468,R,R,R,465.0
468,101,469,R,,{DOWNARROW},4367.0
469,101,470,R,,{UPARROW},2583.0
470,101,471,L,,{DOWNARROW},2355.0
471,101,472,R,,{UPARROW},1785.0
472,101,473,L,,{DOWNARROW},1713.0
473,101,474,R,,{DOWNARROW},2246.0
474,101,475,R,,{DOWNARROW},1850.0
475,101,476,L,,{UPARROW},1484.0
476,101,477,R,,{UPARROW},1251.0
477,101,478,L,,{DOWNARROW},3721.0
478,101,479,L,,{UPARROW},1741.0
479,101,480,R,,{DOWNARROW},2333.0
480,101,481,R,,{UPARROW},1903.0
481,101,482,L,,{DOWNARROW},1574.0
482,101,483,L,,{DOWNARROW},1868.0
483,101,484,L,,{UPARROW},2218.0
484,101,485,L,,{DOWNARROW},1698.0
485,101,486,R,,{UPARROW},2382.0
486,101,487,L,,{DOWNARROW},4666.0
487,101,488,R,,{UPARROW},3766.0
488,101,489,R,,{UPARROW},3646.0
489,101,490,L,,{DOWNARROW},3653.0
490,101,491,R,,{DOWNARROW},2939.0
491,101,492,R,,{DOWNARROW},2847.0
492,101,493,L,,{UPARROW},3163.0
493,101,494,R,,{DOWNARROW},2742.0
494,101,495,R,,{UPARROW},2494.0
495,101,496,R,,{UPARROW},4920.0
496,101,497,L,,{UPARROW},1195.0
497,101,498,R,,{UPARROW},2577.0
498,101,499,R,,{DOWNARROW},4691.0
499,101,500,R,,{UPARROW},3833.0
500,101,501,R,,{UPARROW},1615.0
501,101,502,L,,{DOWNARROW},4169.0
502,101,503,L,,{DOWNARROW},1999.0
503,101,504,R,,{UPARROW},2322.0
504,101,505,R,,{DOWNARROW},2790.0
505,101,506,R,,{DOWNARROW},2764.0
506,101,507,L,,{UPARROW},3820.0
507,101,508,L,,{UPARROW},2432.0
508,101,509,R,,{UPARROW},5402.0
509,101,510,L,,{DOWNARROW},4844.0
510,101,511,L,,{DOWNARROW},1708.0
511,101,512,L,,{UPARROW},1650.0
512,101,513,L,,{UPARROW},2044.0
513,101,514,L,,{DOWNARROW},1948.0
514,101,515,L,,{UPARROW},1390.0
515,101,516,R,,{UPARROW},1976.0
516,101,517,L,,{UPARROW},1890.0
517,101,518,R,,{DOWNARROW},1832.0
518,101,519,L,,{DOWNARROW},1877.0
519,101,520,R,,{DOWNARROW},1851.0
520,101,521,R,,{UPARROW},1745.0
521,101,522,R,,{UPARROW},1269.0
522,101,523,L,,{UPARROW},1823.0
523,101,524,R,,{DOWNARROW},3391.0
524,101,525,L,,{DOWNARROW},2321.0
525,101,526,L,,{UPARROW},1132.0
526,101,527,L,,{UPARROW},1289.0
527,101,528,L,,{UPARROW},1511.0
528,101,529,L,,{UPARROW},1225.0
529,101,530,R,,{DOWNARROW},4745.0
530,101,531,R,,{UPARROW},1517.0
531,101,532,L,,{UPARROW},4379.0
532,101,533,R,,{UPARROW},1931.0
533,101,534,R,,{DOWNARROW},3400.0
534,101,535,R,,{DOWNARROW},3048.0
535,101,536,R,,{UPARROW},1394.0
536,101,537,R,,{DOWNARROW},1516.0
537,101,538,L,,{DOWNARROW},1910.0
538,101,539,R,,{DOWNARROW},4672.0
539,101,540,L,,{DOWNARROW},2614.0
540,101,541,R,,{UPARROW},2120.0
541,101,542,L,,{UPARROW},1263.0
542,101,543,R,,{UPARROW},1831.0
543,101,544,R,,{UPARROW},1548.0
544,101,545,R,,{UPARROW},2354.0
545,101,546,R,,{DOWNARROW},2756.0
546,101,547,L,,{DOWNARROW},1558.0
547,101,548,R,,{UPARROW},2586.0
548,101,549,L,,{UPARROW},2234.0
549,101,550,L,,{DOWNARROW},1611.0
550,101,551,L,,{UPARROW},1369.0
551,101,552,L,,{UPARROW},3131.0
552,101,553,R,,{UPARROW},1921.0
553,101,554,L,,{UPARROW},1853.0
554,101,555,L,,{DOWNARROW},1339.0
555,101,556,L,,{UPARROW},3111.0
556,101,557,L,,{UPARROW},1189.0
557,101,558,L,,{UPARROW},1950.0
1,102,2,R,L,L,563.0
2,102,3,L,R,R,484.0
3,102,4,L,R,R,486.0
4,102,5,L,L,L,392.0
5,102,6,R,R,R,422.0
6,102,7,L,R,R,470.0
7,102,8,L,L,L,448.0
8,102,9,R,L,L,522.0
9,102,10,R,R,R,438.0
10,102,11,R,R,R,498.0
11,102,12,L,L,L,430.0
12,102,13,L,R,R,440.0
13,102,14,R,L,L,400.0
14,102,15,R,R,L,436.0
15,102,16,L,L,L,507.0
16,102,17,R,R,R,515.0
17,102,18,L,FC,L,543.0
18,102,19,L,FC,L,540.0
19,102,20,R,FC,L,515.0
20,102,21,R,L,L,487.0
21,102,22,R,L,L,465.0
22,102,23,R,FC,R,439.0
23,102,24,L,R,R,443.0
24,102,25,R,FC,L,830.0
25,102,26,R,FC,L,456.0
26,102,27,R,FC,R,516.0
27,102,28,L,FC,R,516.0
28,102,29,L,FC,R,548.0
29,102,30,L,L,L,390.0
30,102,31,L,FC,L,468.0
31,102,32,L,FC,L,482.0
32,102,33,L,R,R,326.0
33,102,34,L,FC,R,464.0
34,102,35,R,L,L,446.0
35,102,36,L,L,L,212.0
36,102,37,R,R,L,242.0
37,102,38,R,FC,L,530.0
38,102,39,L,FC,R,311.0
39,102,40,R,R,R,401.0
40,102,41,L,L,L,397.0
41,102,42,L,R,R,386.0
42,102,43,R,FC,R,527.0
43,102,44,R,R,R,341.0
44,102,45,L,L,R,277.0
45,102,46,L,R,R,501.0
46,102,47,R,L,L,413.0
47,102,48,R,FC,L,593.0
48,102,49,R,L,L,527.0
49,102,50,L,L,L,404.0
50,102,51,R,L,L,362.0
51,102,52,L,R,R,362.0
52,102,53,R,R,R,438.0
53,102,54,R,L,L,394.0
54,102,55,R,L,L,436.0
55,102,56,L,L,L,436.0
56,102,57,L,R,R,392.0
57,102,58,R,L,L,378.0
58,102,59,R,L,L,454.0
59,102,60,R,R,R,442.0
60,102,61,R,L,L,434.0
61,102,62,L,L,L,426.0
62,102,63,L,L,L,416.0
63,102,64,R,R,R,372.0
64,102,65,L,R,R,414.0
65,102,66,R,L,L,422.0
66,102,67,R,R,R,394.0
67,102,68,L,L,L,348.0
68,102,69,L,R,R,410.0
69,102,70,L,R,R,440.0
70,102,71,R,R,R,428.0
71,102,72,R,R,R,378.0
72,102,73,L,L,L,369.0
73,102,74,L,R,R,402.0
74,102,75,L,L,L,444.0
75,102,76,L,R,R,438.0
76,102,77,R,L,L,422.0
77,102,78,R,R,R,396.0
78,102,79,L,L,L,368.0
79,102,80,L,R,R,426.0
80,102,81,L,R,R,396.0
81,102,82,R,R,R,356.0
82,102,83,R,R,R,452.0
83,102,84,L,R,R,414.0
84,102,85,R,R,R,398.0
85,102,86,L,L,L,354.0
86,102,87,L,L,L,430.0
87,102,88,R,R,R,341.0
88,102,89,R,L,L,340.0
89,102,90,L,R,R,436.0
90,102,91,L,R,R,400.0
91,102,92,L,L,L,520.0
92,102,93,R,R,R,376.0
93,102,94,L,R,R,356.0
94,102,95,L,R,R,380.0
95,102,96,R,L,L,372.0
96,102,97,L,L,L,406.0
97,102,98,R,R,R,464.0
98,102,99,R,L,L,429.0
99,102,100,R,L,L,391.0
100,102,101,L,R,R,457.0
101,102,102,R,L,L,425.0
102,102,103,L,L,L,427.0
103,102,104,L,L,L,397.0
104,102,105,R,R,R,453.0
105,102,106,R,R,R,351.0
106,102,107,L,L,L,425.0
107,102,108,R,L,L,355.0
108,102,109,L,FC,L,643.0
109,102,110,L,FC,L,439.0
110,102,111,R,L,L,400.0
111,102,112,R,L,L,371.0
112,102,113,L,FC,L,529.0
113,102,114,R,R,R,387.0
114,102,115,R,L,L,413.0
115,102,116,R,R,R,415.0
116,102,117,L,L,L,443.0
117,102,118,L,R,R,411.0
118,102,119,R,L,R,365.0
119,102,120,R,FC,L,670.0
120,102,121,R,FC,L,592.0
121,102,122,R,FC,L,474.0
122,102,123,L,FC,L,422.0
123,102,124,L,L,L,450.0
124,102,125,R,FC,L,412.0
125,102,126,L,R,R,450.0
126,102,127,L,FC,R,460.0
127,102,128,R,FC,R,548.0
128,102,129,L,L,L,434.0
129,102,130,R,FC,L,422.0
130,102,131,L,R,R,341.0
131,102,132,R,R,R,393.0
132,102,133,R,FC,R,464.0
133,102,134,L,L,L,407.0
134,102,135,L,FC,R,341.0
135,102,136,L,FC,L,501.0
136,102,137,R,R,R,437.0
137,102,138,R,R,R,421.0
138,102,139,R,L,L,437.0
139,102,140,R,R,R,329.0
140,102,141,L,R,R,459.0
141,102,142,R,FC,R,459.0
142,102,143,R,FC,R,383.0
143,102,144,L,L,L,427.0
144,102,145,R,FC,L,533.0
145,102,146,R,R,R,379.0
146,102,147,L,FC,R,455.0
147,102,148,L,R,R,399.0
148,102,149,R,L,R,355.0
149,102,150,L,R,R,471.0
150,102,151,L,FC,R,473.0
151,102,152,L,L,L,363.0
152,102,153,R,FC,L,467.0
153,102,154,L,R,R,440.0
154,102,155,L,R,R,340.0
155,102,156,L,FC,R,421.0
156,102,157,R,L,L,460.0
157,102,158,L,R,R,380.0
158,102,159,L,L,L,468.0
159,102,160,L,FC,L,454.0
160,102,161,L,FC,L,422.0
161,102,162,L,FC,L,474.0
162,102,163,R,L,L,460.0
163,102,164,R,R,R,352.0
164,102,165,L,L,L,394.0
165,102,166,R,R,R,423.0
166,102,167,L,L,L,293.0
167,102,168,R,R,R,451.0
168,102,169,R,FC,L,481.0
169,102,170,R,FC,L,421.0
171,102,172,L,R,R,397.0
172,102,173,L,L,L,357.0
173,102,174,L,L,L,448.0
174,102,175,R,R,R,363.0
175,102,176,L,FC,L,539.0
176,102,177,R,L,L,314.0
177,102,178,L,L,L,386.0
178,102,179,R,FC,L,409.0
179,102,180,L,R,R,442.0
180,102,181,L,R,R,394.0
181,102,182,L,L,L,468.0
182,102,183,R,R,R,382.0
183,102,184,L,FC,L,526.0
184,102,185,L,FC,L,384.0
185,102,186,R,FC,L,360.0
186,102,187,L,FC,L,348.0
187,102,188,R,R,R,474.0
188,102,189,R,L,L,410.0
189,102,190,R,FC,L,400.0
190,102,191,L,FC,L,396.0
191,102,192,R,L,L,444.0
192,102,193,R,FC,L,438.0
193,102,194,L,FC,L,330.0
194,102,195,L,FC,L,336.0
195,102,196,L,R,R,392.0
196,102,197,L,FC,R,402.0
198,102,199,L,FC,L,542.0
199,102,200,L,FC,L,426.0
200,102,201,R,FC,L,447.0
201,102,202,L,FC,R,393.0
202,102,203,R,FC,L,475.0
203,102,204,L,L,L,488.0
204,102,205,R,FC,L,369.0
205,102,206,R,R,R,407.0
206,102,207,L,FC,R,481.0
207,102,208,L,FC,R,445.0
208,102,209,R,FC,R,391.0
209,102,210,L,FC,R,353.0
210,102,211,R,FC,R,387.0
211,102,212,R,L,L,565.0
212,102,213,R,R,R,429.0
213,102,214,L,FC,L,603.0
214,102,215,L,L,L,398.0
215,102,216,R,FC,L,430.0
216,102,217,R,FC,L,324.0
217,102,218,R,FC,L,274.0
218,102,219,L,FC,L,342.0
219,102,220,L,R,R,354.0
220,102,221,R,FC,R,528.0
221,102,222,R,FC,R,322.0
222,102,223,R,L,L,450.0
223,102,224,L,FC,L,404.0
224,102,225,R,FC,L,361.0
225,102,226,R,FC,L,401.0
226,102,227,R,FC,L,409.0
227,102,228,L,R,R,408.0
228,102,229,L,R,R,403.0
229,102,230,L,R,R,357.0
230,102,231,L,FC,L,405.0
231,102,232,R,FC,L,471.0
232,102,233,L,L,L,461.0
233,102,234,L,R,R,341.0
234,102,235,R,FC,L,377.0
235,102,236,L,L,L,433.0
236,102,237,R,FC,L,363.0
237,102,238,R,FC,L,399.0
238,102,239,R,FC,L,439.0
239,102,240,R,FC,L,331.0
240,102,241,L,L,L,277.0
241,102,242,R,FC,L,409.0
242,102,243,L,FC,R,651.0
243,102,244,R,R,R,453.0
244,102,245,L,R,R,427.0
245,102,246,L,FC,L,393.0
246,102,247,R,L,L,410.0
247,102,248,R,L,L,353.0
248,102,249,L,R,R,470.0
249,102,250,L,FC,R,396.0
250,102,251,L,FC,R,333.0
251,102,252,R,L,L,298.0
252,102,253,L,L,L,346.0
253,102,254,R,FC,L,288.0
254,102,255,R,R,R,438.0
255,102,256,R,FC,L,370.0
256,102,257,L,L,L,288.0
257,102,258,R,R,R,505.0
258,102,259,L,R,R,368.0
259,102,260,L,FC,L,370.0
260,102,261,L,L,L,404.0
261,102,262,L,FC,L,446.0
262,102,263,R,R,R,439.0
263,102,264,R,R,R,339.0
264,102,265,L,L,L,303.0
265,102,266,R,R,R,295.0
266,102,267,R,FC,R,339.0
267,102,268,L,FC,R,419.0
268,102,269,R,FC,L,375.0
269,102,270,L,R,L,315.0
270,102,271,R,FC,R,435.0
271,102,272,R,FC,L,399.0
272,102,273,L,FC,R,470.0
273,102,274,L,FC,R,332.0
274,102,275,L,L,L,399.0
275,102,276,L,R,R,446.0
276,102,277,L,FC,L,556.0
277,102,278,R,FC,L,344.0
278,102,279,L,FC,R,386.0
279,102,280,L,FC,R,416.0
280,102,281,L,FC,R,408.0
281,102,282,L,R,R,438.0
282,102,283,L,FC,R,530.0
283,102,284,R,L,L,400.0
284,102,285,L,FC,R,568.0
285,102,286,L,R,R,414.0
286,102,287,R,R,R,406.0
287,102,288,R,FC,R,312.0
288,102,289,R,L,R,306.0
289,102,290,L,R,L,320.0
290,102,291,L,FC,R,544.0
291,102,292,L,L,L,428.0
292,102,293,R,FC,R,538.0
293,102,294,R,R,R,394.0
294,102,295,L,FC,R,396.0
295,102,296,L,FC,R,435.0
296,102,297,R,FC,R,471.0
297,102,298,R,L,L,406.0
298,102,299,L,FC,L,395.0
299,102,300,L,L,L,339.0
300,102,301,L,FC,L,491.0
301,102,302,L,FC,L,377.0
302,102,303,L,R,R,337.0
303,102,304,R,L,L,397.0
304,102,305,L,FC,L,393.0
305,102,306,R,FC,L,411.0
306,102,307,R,FC,L,392.0
307,102,308,R,FC,L,447.0
308,102,309,R,FC,L,377.0
309,102,310,R,FC,L,360.0
310,102,311,R,FC,L,372.0
311,102,312,L,L,L,530.0
312,102,313,R,R,R,372.0
313,102,314,R,L,L,326.0
314,102,315,R,FC,L,388.0
315,102,316,L,FC,L,406.0
316,102,317,R,L,L,436.0
317,102,318,R,R,R,336.0
318,102,319,L,L,L,384.0
319,102,320,L,FC,L,415.0
320,102,321,L,L,L,403.0
321,102,322,R,R,R,453.0
322,102,323,R,FC,R,478.0
323,102,324,L,FC,R,477.0
324,102,325,L,L,L,337.0
325,102,326,R,R,R,425.0
326,102,327,R,FC,R,619.0
327,102,328,R,FC,R,387.0
328,102,329,R,FC,R,509.0
329,102,330,R,L,L,423.0
330,102,331,L,FC,L,395.0
331,102,332,R,FC,L,403.0
332,102,333,R,L,L,221.0
333,102,334,L,FC,L,321.0
334,102,335,L,R,R,421.0
335,102,336,L,FC,L,341.0
336,102,337,R,L,L,361.0
337,102,338,R,R,R,373.0
338,102,339,R,L,L,379.0
339,102,340,R,R,R,383.0
340,102,341,R,L,L,343.0
341,102,342,R,FC,L,351.0
342,102,343,L,R,R,381.0
343,102,344,R,R,R,385.0
344,102,345,R,L,L,372.0
345,102,346,L,R,R,386.0
346,102,347,L,FC,R,505.0
347,102,348,L,L,L,400.0
348,102,349,L,R,R,478.0
349,102,350,N,FC,R,458.0
350,102,351,R,L,L,350.0
351,102,352,R,L,L,392.0
352,102,353,R,R,R,374.0
353,102,354,N,FC,R,496.0
354,102,355,L,L,L,376.0
355,102,356,L,R,R,376.0
356,102,357,L,R,R,376.0
357,102,358,N,FC,L,352.0
358,102,359,R,L,L,329.0
359,102,360,R,R,R,375.0
360,102,361,N,FC,R,463.0
361,102,362,L,L,L,327.0
362,102,363,L,R,R,337.0
363,102,364,L,R,R,405.0
364,102,365,N,FC,L,503.0
365,102,366,L,L,L,487.0
366,102,367,N,FC,L,436.0
367,102,368,L,L,L,324.0
368,102,369,L,R,L,307.0
369,102,370,N,FC,L,552.0
370,102,371,R,R,R,342.0
371,102,372,N,FC,R,410.0
372,102,373,N,FC,R,444.0
373,102,374,N,FC,L,446.0
374,102,375,N,FC,L,412.0
375,102,376,N,FC,L,386.0
376,102,377,L,L,L,428.0
377,102,378,L,R,L,298.0
378,102,379,N,FC,L,602.0
379,102,380,L,R,R,430.0
380,102,381,N,FC,L,368.0
381,102,382,R,L,L,426.0
382,102,383,L,R,R,332.0
383,102,384,N,FC,L,398.0
384,102,385,R,R,R,358.0
385,102,386,N,FC,R,382.0
386,102,387,N,FC,R,370.0
387,102,388,N,FC,R,344.0
388,102,389,L,L,L,339.0
389,102,390,L,R,R,391.0
390,102,391,N,FC,R,377.0
391,102,392,R,L,L,366.0
392,102,393,N,FC,L,411.0
393,102,394,R,L,L,353.0
394,102,395,N,FC,L,335.0
395,102,396,N,FC,L,323.0
396,102,397,R,R,R,447.0
397,102,398,L,L,L,329.0
398,102,399,R,R,R,419.0
399,102,400,N,FC,R,339.0
400,102,401,N,FC,R,383.0
401,102,402,R,L,L,403.0
402,102,403,N,FC,R,467.0
403,102,404,R,L,L,321.0
404,102,405,N,FC,L,332.0
405,102,406,N,FC,R,394.0
406,102,407,L,R,R,412.0
407,102,408,N,FC,R,326.0
408,102,409,L,L,L,396.0
409,102,410,N,FC,L,424.0
410,102,411,N,FC,L,430.0
411,102,412,N,FC,L,304.0
412,102,413,N,FC,L,402.0
413,102,414,L,L,L,361.0
414,102,415,R,R,R,401.0
415,102,416,N,FC,L,522.0
416,102,417,R,L,L,413.0
417,102,418,N,FC,L,433.0
418,102,419,N,FC,L,397.0
419,102,420,R,L,L,381.0
420,102,421,N,FC,L,329.0
421,102,422,N,FC,L,391.0
422,102,423,L,R,R,345.0
423,102,424,L,R,R,363.0
424,102,425,N,FC,R,431.0
425,102,426,N,FC,R,429.0
426,102,427,R,L,L,379.0
427,102,428,L,R,R,383.0
428,102,429,R,R,R,355.0
429,102,430,N,FC,R,475.0
430,102,431,L,L,L,375.0
431,102,432,N,FC,L,435.0
432,102,433,N,FC,R,395.0
433,102,434,N,FC,L,393.0
434,102,435,N,FC,L,383.0
435,102,436,R,R,R,391.0
436,102,437,N,FC,L,433.0
437,102,438,N,FC,L,342.0
438,102,439,N,FC,L,382.0
439,102,440,R,L,L,470.0
441,102,442,R,R,R,424.0
442,102,443,N,FC,R,426.0
443,102,444,L,L,L,420.0
444,102,445,L,L,L,416.0
445,102,446,R,R,R,372.0
446,102,447,N,FC,L,566.0
447,102,448,N,FC,L,532.0
448,102,449,N,FC,L,470.0
449,102,450,N,FC,L,368.0
450,102,451,R,R,R,454.0
451,102,452,N,FC,R,504.0
452,102,453,N,FC,R,356.0
453,102,454,R,L,L,348.0
454,102,455,N,FC,R,421.0
455,102,456,N,FC,L,293.0
456,102,457,L,R,R,315.0
457,102,458,L,L,R,307.0
458,102,459,L,L,L,333.0
459,102,460,N,FC,L,427.0
460,102,461,R,R,R,405.0
461,102,462,R,R,R,386.0
462,102,463,R,L,L,292.0
463,102,464,N,FC,L,470.0
464,102,465,R,R,R,361.0
465,102,466,R,L,L,384.0
466,102,467,N,FC,L,360.0
467,102,468,L,L,L,412.0
468,102,469,L,,{DOWNARROW},724.0
469,102,470,L,,{UPARROW},800.0
470,102,471,R,,{DOWNARROW},1004.0
471,102,472,R,,{DOWNARROW},580.0
472,102,473,L,,{DOWNARROW},776.0
473,102,474,L,,{UPARROW},802.0
474,102,475,L,,{UPARROW},1522.0
475,102,476,R,,{DOWNARROW},1573.0
476,102,477,R,,{UPARROW},1495.0
477,102,478,L,,{DOWNARROW},1093.0
478,102,479,R,,{UPARROW},1618.0
479,102,480,R,,{UPARROW},1474.0
480,102,481,L,,{UPARROW},1528.0
481,102,482,R,,{UPARROW},1222.0
482,102,483,L,,{DOWNARROW},1098.0
483,102,484,L,,{DOWNARROW},1086.0
484,102,485,R,,{UPARROW},1394.0
485,102,486,L,,{DOWNARROW},896.0
486,102,487,R,,{DOWNARROW},1414.0
487,102,488,L,,{UPARROW},1592.0
488,102,489,L,,{UPARROW},1429.0
489,102,490,R,,{DOWNARROW},2095.0
490,102,491,L,,{DOWNARROW},1533.0
491,102,492,L,,{UPARROW},1443.0
492,102,493,L,,{DOWNARROW},1171.0
493,102,494,R,,{DOWNARROW},1936.0
494,102,495,R,,{DOWNARROW},1626.0
495,102,496,L,,{UPARROW},990.0
496,102,497,R,,{DOWNARROW},1476.0
497,102,498,L,,{UPARROW},1653.0
498,102,499,L,,{DOWNARROW},823.0
499,102,500,R,,{UPARROW},1559.0
500,102,501,R,,{UPARROW},1391.0
501,102,502,L,,{DOWNARROW},1657.0
502,102,503,R,,{UPARROW},1551.0
503,102,504,R,,{DOWNARROW},1785.0
504,102,505,R,,{UPARROW},1761.0
505,102,506,R,,{DOWNARROW},2605.0
506,102,507,L,,{UPARROW},3424.0
507,102,508,R,,{DOWNARROW},1800.0
508,102,509,R,,{DOWNARROW},868.0
509,102,510,L,,{DOWNARROW},828.0
510,102,511,R,,{DOWNARROW},508.0
511,102,512,L,,{UPARROW},1916.0
512,102,513,R,,{UPARROW},1029.0
513,102,514,L,,{UPARROW},1235.0
514,102,515,R,,{UPARROW},1177.0
515,102,516,R,,{UPARROW},1134.0
516,102,517,L,,{DOWNARROW},932.0
517,102,518,R,,{DOWNARROW},590.0
518,102,519,L,,{DOWNARROW},1648.0
519,102,520,R,,{UPARROW},1454.0
520,102,521,R,,{DOWNARROW},636.0
521,102,522,R,,{DOWNARROW},698.0
522,102,523,L,,{DOWNARROW},640.0
523,102,524,L,,{UPARROW},772.0
524,102,525,R,,{UPARROW},1134.0
525,102,526,R,,{DOWNARROW},483.0
526,102,527,R,,{UPARROW},1183.0
527,102,528,R,,{DOWNARROW},551.0
528,102,529,L,,{DOWNARROW},473.0
529,102,530,R,,{UPARROW},723.0
530,102,531,R,,{DOWNARROW},499.0
531,102,532,R,,{DOWNARROW},603.0
532,102,533,L,,{DOWNARROW},454.0
533,102,534,L,,{DOWNARROW},460.0
534,102,535,R,,{DOWNARROW},424.0
535,102,536,R,,{UPARROW},599.0
536,102,537,L,,{DOWNARROW},479.0
537,102,538,L,,{UPARROW},763.0
538,102,539,L,,{UPARROW},639.0
539,102,540,L,,{UPARROW},435.0
540,102,541,L,,{DOWNARROW},633.0
541,102,542,L,,{UPARROW},915.0
542,102,543,L,,{DOWNARROW},401.0
543,102,544,R,,{DOWNARROW},553.0
544,102,545,R,,{DOWNARROW},407.0
545,102,546,L,,{DOWNARROW},355.0
546,102,547,R,,{UPARROW},1044.0
547,102,548,L,,{DOWNARROW},384.0
548,102,549,R,,{DOWNARROW},384.0
549,102,550,L,,{DOWNARROW},612.0
550,102,551,R,,{DOWNARROW},390.0
551,102,552,L,,{UPARROW},616.0
552,102,553,L,,{UPARROW},762.0
553,102,554,R,,{UPARROW},1174.0
554,102,555,R,,{DOWNARROW},452.0
555,102,556,L,,{DOWNARROW},385.0
556,102,557,L,,{DOWNARROW},397.0
557,102,558,L,,{DOWNARROW},374.0
1,103,2,R,R,L,395.0
2,103,3,R,R,R,436.0
3,103,4,L,R,R,459.0
4,103,5,R,R,R,383.0
5,103,6,R,L,L,459.0
6,103,7,L,L,L,431.0
7,103,8,L,L,L,437.0
8,103,9,R,L,L,373.0
9,103,10,L,L,L,439.0
10,103,11,L,R,R,403.0
11,103,12,L,R,R,487.0
12,103,13,L,L,L,337.0
13,103,14,R,R,R,365.0
14,103,15,L,R,R,451.0
15,103,16,R,L,L,345.0
16,103,17,L,FC,R,641.0
17,103,18,R,FC,R,476.0
18,103,19,R,R,R,433.0
19,103,20,L,FC,R,590.0
20,103,21,R,R,R,465.0
21,103,22,L,FC,L,503.0
22,103,23,L,FC,L,395.0
23,103,24,R,L,L,361.0
24,103,25,L,R,R,425.0
25,103,26,L,R,R,463.0
26,103,27,R,FC,L,487.0
27,103,28,L,L,L,392.0
28,103,29,L,R,R,390.0
29,103,30,L,L,L,332.0
30,103,31,R,FC,R,314.0
31,103,32,L,FC,L,363.0
32,103,33,L,FC,R,533.0
33,103,34,L,L,L,247.0
34,103,35,L,R,R,401.0
35,103,36,R,FC,L,341.0
36,103,37,L,L,R,261.0
37,103,38,L,FC,L,481.0
38,103,39,R,L,L,377.0
39,103,40,R,FC,L,465.0
40,103,41,R,R,R,379.0
41,103,42,L,FC,R,499.0
42,103,43,R,R,R,495.0
43,103,44,R,FC,R,502.0
44,103,45,R,FC,R,439.0
45,103,46,R,FC,R,359.0
46,103,47,R,L,L,391.0
48,103,49,L,R,R,498.0
49,103,50,L,R,R,430.0
50,103,51,L,L,L,336.0
51,103,52,L,R,R,316.0
52,103,53,L,L,L,236.0
53,103,54,L,L,L,340.0
54,103,55,R,R,L,296.0
55,103,56,L,L,L,444.0
56,103,57,L,R,R,382.0
57,103,58,L,R,R,430.0
58,103,59,L,L,L,424.0
59,103,60,R,L,L,465.0
60,103,61,R,L,L,411.0
61,103,62,R,L,L,393.0
62,103,63,R,L,L,363.0
63,103,64,L,L,L,363.0
64,103,65,R,R,R,427.0
65,103,66,L,R,R,425.0
66,103,67,R,L,L,371.0
67,103,68,R,R,R,345.0
68,103,69,L,L,L,351.0
69,103,70,L,R,R,433.0
70,103,71,R,R,R,463.0
71,103,72,L,R,R,391.0
72,103,73,R,R,R,437.0
73,103,74,L,R,R,484.0
74,103,75,L,L,L,326.0
75,103,76,R,R,R,420.0
76,103,77,L,L,L,365.0
77,103,78,L,L,L,460.0
78,103,79,R,R,R,404.0
79,103,80,R,L,L,364.0
80,103,81,R,L,R,424.0
81,103,82,R,L,L,470.0
82,103,83,R,L,L,388.0
83,103,84,R,L,L,382.0
84,103,85,L,L,L,374.0
85,103,86,L,R,R,440.0
86,103,87,R,R,R,452.0
87,103,88,R,R,R,310.0
88,103,89,R,R,R,420.0
89,103,90,R,L,L,364.0
90,103,91,L,L,L,444.0
91,103,92,L,R,R,390.0
92,103,93,R,L,L,448.0
93,103,94,L,R,R,366.0
94,103,95,R,L,L,532.0
95,103,96,R,L,L,437.0
96,103,97,R,R,R,453.0
97,103,98,R,R,L,295.0
98,103,99,R,R,R,407.0
99,103,100,R,R,R,445.0
100,103,101,L,R,R,355.0
101,103,102,L,L,L,346.0
102,103,103,R,L,L,420.0
103,103,104,L,R,R,388.0
104,103,105,L,L,L,382.0
105,103,106,R,R,R,547.0
106,103,107,L,L,L,332.0
107,103,108,L,R,R,366.0
108,103,109,R,L,L,424.0
109,103,110,R,L,L,414.0
110,103,111,R,FC,L,514.0
111,103,112,R,FC,L,324.0
112,103,113,R,R,R,384.0
113,103,114,R,L,L,296.0
114,103,115,L,R,R,316.0
115,103,116,L,FC,L,280.0
116,103,117,R,R,R,292.0
117,103,118,R,FC,R,330.0
118,103,119,L,FC,L,328.0
119,103,120,R,L,R,322.0
120,103,121,R,FC,L,474.0
121,103,122,R,FC,R,410.0
122,103,123,R,FC,L,360.0
123,103,124,R,R,R,292.0
124,103,125,L,FC,L,422.0
125,103,126,L,R,R,323.0
126,103,127,R,L,L,430.0
127,103,128,L,R,R,328.0
129,103,130,R,FC,L,550.0
130,103,131,R,FC,R,352.0
131,103,132,L,L,R,466.0
132,103,133,R,FC,L,452.0
133,103,134,L,FC,R,478.0
134,103,135,R,FC,R,374.0
136,103,137,L,FC,L,468.0
137,103,138,L,L,L,418.0
138,103,139,R,FC,R,402.0
139,103,140,R,R,R,390.0
140,103,141,R,R,R,404.0
141,103,142,L,L,L,316.0
142,103,143,R,FC,R,328.0
143,103,144,L,FC,L,358.0
144,103,145,R,R,R,306.0
145,103,146,L,L,L,380.0
146,103,147,R,FC,R,400.0
147,103,148,R,FC,R,360.0
148,103,149,L,R,L,244.0
149,103,150,R,FC,R,393.0
150,103,151,L,FC,R,299.0
151,103,152,L,FC,R,355.0
152,103,153,L,FC,R,395.0
153,103,154,R,FC,R,436.0
154,103,155,L,L,L,335.0
155,103,156,R,FC,L,491.0
156,103,157,R,FC,L,500.0
157,103,158,R,FC,L,472.0
158,103,159,R,FC,L,594.0
159,103,160,L,FC,R,378.0
160,103,161,R,R,R,422.0
161,103,162,R,FC,L,430.0
162,103,163,L,L,L,512.0
163,103,164,L,L,L,350.0
164,103,165,L,R,R,456.0
165,103,166,L,L,L,340.0
166,103,167,L,L,L,400.0
168,103,169,L,L,L,452.0
169,103,170,L,FC,R,442.0
170,103,171,L,FC,R,470.0
172,103,173,R,FC,L,500.0
173,103,174,R,FC,R,340.0
174,103,175,L,FC,R,416.0
175,103,176,L,FC,L,348.0
176,103,177,L,FC,R,330.0
177,103,178,R,FC,L,412.0
178,103,179,L,FC,R,413.0
179,103,180,L,R,R,477.0
180,103,181,L,R,R,413.0
181,103,182,R,L,L,353.0
182,103,183,L,R,R,408.0
183,103,184,R,FC,R,517.0
184,103,185,R,FC,R,345.0
185,103,186,L,FC,R,431.0
186,103,187,R,R,R,425.0
188,103,189,L,L,L,378.0
189,103,190,R,R,R,430.0
190,103,191,L,FC,R,611.0
191,103,192,R,L,L,325.0
192,103,193,R,FC,R,515.0
193,103,194,R,L,L,267.0
194,103,195,L,FC,R,361.0
197,103,198,R,L,R,273.0
198,103,199,L,FC,L,465.0
199,103,200,L,FC,R,291.0
200,103,201,R,R,L,365.0
201,103,202,L,L,L,507.0
202,103,203,L,FC,L,701.0
203,103,204,L,FC,R,361.0
204,103,205,R,L,L,405.0
205,103,206,L,R,R,391.0
206,103,207,R,L,R,361.0
207,103,208,L,L,L,349.0
208,103,209,R,FC,L,475.0
209,103,210,L,R,R,424.0
210,103,211,L,FC,R,353.0
211,103,212,R,FC,R,319.0
212,103,213,L,L,R,339.0
213,103,214,R,L,L,395.0
214,103,215,L,FC,R,343.0
215,103,216,L,R,R,443.0
216,103,217,L,R,R,427.0
217,103,218,R,L,L,417.0
219,103,220,L,R,R,405.0
221,103,222,L,FC,R,325.0
222,103,223,L,L,R,282.0
223,103,224,R,L,L,302.0
224,103,225,R,R,R,322.0
225,103,226,L,FC,L,294.0
226,103,227,L,FC,L,322.0
227,103,228,R,FC,R,338.0
228,103,229,R,FC,L,461.0
229,103,230,R,R,R,341.0
230,103,231,R,FC,L,377.0
231,103,232,R,FC,R,337.0
232,103,233,R,FC,R,354.0
233,103,234,R,FC,R,355.0
234,103,235,L,R,R,391.0
235,103,236,L,L,R,305.0
236,103,237,L,FC,L,495.0
237,103,238,R,FC,R,327.0
238,103,239,R,L,L,433.0
239,103,240,R,FC,R,307.0
240,103,241,R,R,R,553.0
241,103,242,L,L,L,359.0
242,103,243,R,FC,R,347.0
243,103,244,L,FC,L,285.0
244,103,245,R,R,R,379.0
245,103,246,L,L,L,395.0
246,103,247,R,L,R,301.0
247,103,248,R,FC,L,481.0
248,103,249,L,FC,R,689.0
249,103,250,R,FC,L,367.0
250,103,251,L,FC,R,349.0
251,103,252,R,R,L,367.0
252,103,253,R,FC,R,445.0
253,103,254,L,FC,R,419.0
254,103,255,L,FC,R,355.0
255,103,256,L,FC,R,359.0
256,103,257,R,FC,R,419.0
257,103,258,L,R,R,407.0
258,103,259,R,FC,R,407.0
259,103,260,R,FC,R,337.0
260,103,261,L,FC,R,494.0
261,103,262,R,FC,R,362.0
262,103,263,L,L,R,321.0
263,103,264,L,L,L,349.0
264,103,265,R,FC,R,475.0
265,103,266,L,R,R,459.0
266,103,267,L,R,R,391.0
267,103,268,R,L,L,337.0
268,103,269,L,FC,R,493.0
269,103,270,R,R,R,551.0
270,103,271,R,R,R,381.0
271,103,272,L,L,L,349.0
272,103,273,R,R,R,379.0
273,103,274,R,R,R,371.0
274,103,275,L,L,R,333.0
275,103,276,L,R,R,421.0
276,103,277,L,R,R,421.0
277,103,278,R,L,L,377.0
278,103,279,R,FC,R,429.0
279,103,280,L,FC,R,507.0
280,103,281,R,R,R,377.0
281,103,282,R,FC,R,481.0
282,103,283,L,FC,R,381.0
283,103,284,L,FC,R,417.0
284,103,285,L,L,L,345.0
285,103,286,L,FC,R,447.0
286,103,287,R,R,R,472.0
287,103,288,L,FC,R,558.0
288,103,289,L,FC,R,482.0
289,103,290,R,FC,R,374.0
290,103,291,L,L,L,341.0
291,103,292,R,FC,R,588.0
292,103,293,L,R,R,518.0
293,103,294,L,FC,R,454.0
296,103,297,R,FC,R,485.0
297,103,298,L,R,R,551.0
298,103,299,R,FC,R,437.0
299,103,300,R,FC,L,425.0
300,103,301,R,L,L,419.0
301,103,302,L,FC,R,411.0
302,103,303,R,R,R,357.0
303,103,304,R,FC,L,409.0
304,103,305,R,FC,R,463.0
305,103,306,L,FC,L,283.0
306,103,307,R,FC,R,399.0
307,103,308,L,R,R,299.0
308,103,309,R,FC,L,319.0
309,103,310,R,L,L,423.0
310,103,311,L,FC,R,391.0
311,103,312,L,FC,R,445.0
313,103,314,L,FC,R,463.0
314,103,315,R,L,L,438.0
315,103,316,L,R,R,390.0
316,103,317,L,L,L,408.0
317,103,318,L,FC,R,503.0
318,103,319,R,L,L,338.0
319,103,320,L,R,R,354.0
320,103,321,R,L,L,344.0
321,103,322,L,L,R,332.0
322,103,323,L,R,R,426.0
323,103,324,L,FC,R,544.0
324,103,325,L,L,L,336.0
325,103,326,R,L,L,476.0
326,103,327,L,FC,R,380.0
327,103,328,L,R,R,347.0
328,103,329,L,R,R,337.0
329,103,330,R,L,L,417.0
330,103,331,R,FC,L,865.0
331,103,332,L,FC,R,487.0
332,103,333,L,FC,L,821.0
333,103,334,R,FC,L,381.0
334,103,335,L,FC,L,257.0
335,103,336,L,FC,R,373.0
336,103,337,L,FC,L,315.0
338,103,339,R,R,R,331.0
339,103,340,L,L,L,305.0
340,103,341,R,L,R,335.0
341,103,342,L,R,L,307.0
342,103,343,R,L,L,404.0
343,103,344,R,FC,R,380.0
344,103,345,L,L,L,336.0
345,103,346,R,R,R,373.0
346,103,347,R,R,L,370.0
347,103,348,L,FC,R,432.0
348,103,349,N,FC,R,349.0
349,103,350,N,FC,R,363.0
350,103,351,N,FC,R,427.0
351,103,352,R,L,L,277.0
352,103,353,N,FC,L,380.0
353,103,354,N,FC,R,516.0
354,103,355,N,FC,L,296.0
355,103,356,L,L,L,413.0
356,103,357,L,R,R,354.0
357,103,358,N,FC,L,338.0
359,103,360,R,L,L,362.0
360,103,361,R,R,L,298.0
361,103,362,N,FC,L,366.0
363,103,364,L,L,L,444.0
364,103,365,R,R,R,434.0
365,103,366,R,L,L,314.0
366,103,367,N,FC,L,496.0
367,103,368,N,FC,R,444.0
368,103,369,N,FC,L,354.0
369,103,370,N,FC,L,312.0
370,103,371,N,FC,R,290.0
371,103,372,L,R,R,356.0
372,103,373,N,FC,L,320.0
373,103,374,N,FC,R,276.0
374,103,375,N,FC,L,224.0
375,103,376,R,R,R,264.0
377,103,378,L,R,R,407.0
378,103,379,R,R,R,313.0
379,103,380,N,FC,R,359.0
380,103,381,R,L,L,407.0
381,103,382,L,R,R,364.0
383,103,384,R,L,L,363.0
385,103,386,R,R,R,314.0
386,103,387,N,FC,L,490.0
387,103,388,N,FC,L,280.0
388,103,389,R,R,R,492.0
394,103,395,R,R,R,334.0
395,103,396,N,FC,R,332.0
396,103,397,N,FC,R,326.0
397,103,398,N,FC,R,312.0
398,103,399,N,FC,R,306.0
399,103,400,N,FC,R,304.0
400,103,401,L,L,L,392.0
401,103,402,L,R,R,370.0
402,103,403,N,FC,R,304.0
403,103,404,L,R,R,288.0
404,103,405,N,FC,R,306.0
405,103,406,N,FC,R,308.0
406,103,407,N,FC,R,330.0
407,103,408,N,FC,R,331.0
408,103,409,L,L,R,345.0
409,103,410,L,R,R,386.0
410,103,411,N,FC,R,377.0
411,103,412,N,FC,L,324.0
412,103,413,N,FC,R,290.0
413,103,414,R,R,L,340.0
414,103,415,N,FC,R,324.0
415,103,416,R,L,L,386.0
416,103,417,R,R,R,344.0
417,103,418,N,FC,L,358.0
418,103,419,L,R,R,354.0
419,103,420,L,L,L,336.0
420,103,421,L,L,R,312.0
421,103,422,L,R,R,492.0
422,103,423,N,FC,R,422.0
423,103,424,R,L,L,494.0
425,103,426,L,R,R,548.0
426,103,427,N,FC,L,390.0
427,103,428,L,L,L,432.0
428,103,429,N,FC,R,390.0
430,103,431,L,R,R,392.0
431,103,432,R,L,L,366.0
432,103,433,L,L,L,348.0
433,103,434,R,R,R,370.0
435,103,436,R,L,L,551.0
436,103,437,N,FC,R,581.0
437,103,438,L,L,L,346.0
438,103,439,R,R,R,419.0
440,103,441,L,L,L,331.0
441,103,442,N,FC,L,492.0
442,103,443,R,R,R,502.0
443,103,444,R,L,L,298.0
444,103,445,N,FC,R,450.0
445,103,446,N,FC,R,532.0
446,103,447,N,FC,R,458.0
447,103,448,N,FC,L,414.0
448,103,449,N,FC,R,278.0
449,103,450,R,L,R,330.0
450,103,451,N,FC,L,372.0
451,103,452,L,R,R,302.0
452,103,453,R,L,L,290.0
453,103,454,N,FC,L,392.0
454,103,455,R,L,L,402.0
455,103,456,N,FC,L,330.0
456,103,457,N,FC,L,492.0
457,103,458,N,FC,L,326.0
458,103,459,N,FC,L,340.0
460,103,461,L,L,L,400.0
461,103,462,L,L,L,352.0
462,103,463,N,FC,L,741.0
463,103,464,N,FC,L,345.0
464,103,465,N,FC,L,335.0
465,103,466,N,FC,R,300.0
467,103,468,N,FC,R,331.0
468,103,469,L,,{DOWNARROW},2960.0
469,103,470,L,,{DOWNARROW},940.0
470,103,471,L,,{UPARROW},2312.0
471,103,472,L,,{DOWNARROW},2385.0
472,103,473,R,,{DOWNARROW},1909.0
473,103,474,L,,{DOWNARROW},2015.0
474,103,475,R,,{UPARROW},1509.0
475,103,476,R,,{DOWNARROW},2059.0
476,103,477,L,,{DOWNARROW},1911.0
477,103,478,R,,{UPARROW},1069.0
478,103,479,R,,{UPARROW},827.0
479,103,480,L,,{UPARROW},4658.0
480,103,481,R,,{UPARROW},650.0
481,103,482,R,,{DOWNARROW},1095.0
482,103,483,L,,{DOWNARROW},2769.0
483,103,484,R,,{DOWNARROW},895.0
484,103,485,R,,{UPARROW},2177.0
485,103,486,L,,{UPARROW},931.0
486,103,487,L,,{DOWNARROW},3221.0
487,103,488,L,,{DOWNARROW},1261.0
488,103,489,R,,{DOWNARROW},1473.0
489,103,490,L,,{DOWNARROW},1299.0
490,103,491,L,,{UPARROW},2683.0
491,103,492,L,,{UPARROW},1371.0
492,103,493,R,,{DOWNARROW},651.0
493,103,494,L,,{UPARROW},1109.0
494,103,495,L,,{UPARROW},2195.0
495,103,496,L,,{DOWNARROW},649.0
496,103,497,R,,{DOWNARROW},995.0
497,103,498,L,,{UPARROW},541.0
498,103,499,R,,{DOWNARROW},1229.0
499,103,500,R,,{DOWNARROW},971.0
500,103,501,L,,{DOWNARROW},609.0
501,103,502,L,,{DOWNARROW},523.0
502,103,503,L,,{UPARROW},539.0
503,103,504,L,,{DOWNARROW},1331.0
504,103,505,L,,{DOWNARROW},897.0
505,103,506,L,,{DOWNARROW},1234.0
506,103,507,R,,{UPARROW},1616.0
507,103,508,L,,{UPARROW},1213.0
508,103,509,L,,{UPARROW},1059.0
509,103,510,L,,{DOWNARROW},4203.0
510,103,511,L,,{UPARROW},1363.0
511,103,512,L,,{UPARROW},3363.0
512,103,513,R,,{UPARROW},923.0
513,103,514,R,,{UPARROW},935.0
514,103,515,L,,{DOWNARROW},1765.0
515,103,516,L,,{DOWNARROW},1352.0
516,103,517,L,,{UPARROW},930.0
517,103,518,R,,{DOWNARROW},1348.0
518,103,519,L,,{DOWNARROW},1378.0
519,103,520,R,,{DOWNARROW},796.0
520,103,521,R,,{DOWNARROW},773.0
521,103,522,L,,{UPARROW},1583.0
522,103,523,R,,{DOWNARROW},775.0
523,103,524,R,,{UPARROW},549.0
524,103,525,R,,{UPARROW},795.0
525,103,526,L,,{UPARROW},1537.0
526,103,527,L,,{UPARROW},4319.0
527,103,528,L,,{UPARROW},634.0
528,103,529,R,,{UPARROW},6632.0
529,103,530,L,,{DOWNARROW},1466.0
530,103,531,R,,{DOWNARROW},1106.0
531,103,532,R,,{DOWNARROW},882.0
532,103,533,R,,{UPARROW},410.0
533,103,534,R,,{DOWNARROW},675.0
534,103,535,R,,{DOWNARROW},581.0
535,103,536,R,,{UPARROW},221.0
536,103,537,R,,{DOWNARROW},609.0
537,103,538,R,,{DOWNARROW},831.0
538,103,539,R,,{UPARROW},540.0
539,103,540,R,,{DOWNARROW},268.0
540,103,541,L,,{UPARROW},734.0
541,103,542,L,,{UPARROW},1076.0
542,103,543,L,,{UPARROW},8766.0
543,103,544,L,,{UPARROW},818.0
544,103,545,R,,{DOWNARROW},424.0
545,103,546,R,,{DOWNARROW},2032.0
546,103,547,R,,{DOWNARROW},1730.0
547,103,548,R,,{DOWNARROW},6019.0
548,103,549,R,,{DOWNARROW},903.0
549,103,550,R,,{DOWNARROW},546.0
550,103,551,R,,{UPARROW},614.0
551,103,552,L,,{DOWNARROW},548.0
552,103,553,R,,{UPARROW},890.0
553,103,554,R,,{UPARROW},6660.0
554,103,555,L,,{UPARROW},1388.0
555,103,556,R,,{DOWNARROW},428.0
556,103,557,R,,{DOWNARROW},1304.0
557,103,558,L,,{DOWNARROW},12112.0
1,104,2,L,L,L,392.0
2,104,3,R,R,R,402.0
3,104,4,L,R,R,438.0
4,104,5,L,L,L,370.0
5,104,6,L,L,R,364.0
6,104,7,R,L,L,390.0
7,104,8,L,L,L,428.0
8,104,9,R,R,R,458.0
9,104,10,R,R,R,462.0
10,104,11,L,R,R,382.0
11,104,12,R,L,L,362.0
12,104,13,R,L,L,406.0
13,104,14,L,R,L,328.0
14,104,15,R,R,R,421.0
15,104,16,L,R,R,410.0
17,104,18,R,FC,R,639.0
18,104,19,R,R,R,459.0
19,104,20,L,FC,R,591.0
20,104,21,R,L,L,429.0
21,104,22,R,R,R,406.0
22,104,23,L,FC,R,468.0
23,104,24,L,L,L,458.0
24,104,25,L,L,L,498.0
25,104,26,R,R,R,403.0
26,104,27,L,FC,R,638.0
27,104,28,L,L,L,438.0
28,104,29,R,R,R,390.0
29,104,30,L,FC,R,628.0
30,104,31,L,FC,R,526.0
31,104,32,L,R,R,448.0
32,104,33,R,FC,R,606.0
33,104,34,R,FC,L,692.0
34,104,35,L,L,L,466.0
35,104,36,L,FC,L,560.0
36,104,37,L,R,R,432.0
37,104,38,L,R,R,426.0
38,104,39,R,FC,R,512.0
39,104,40,R,L,L,430.0
40,104,41,L,R,R,392.0
41,104,42,R,L,L,354.0
42,104,43,L,FC,R,468.0
43,104,44,L,FC,L,357.0
44,104,45,R,FC,R,410.0
45,104,46,R,FC,L,532.0
46,104,47,R,L,L,410.0
47,104,48,R,FC,R,472.0
48,104,49,R,L,L,452.0
49,104,50,L,R,R,373.0
50,104,51,L,R,R,332.0
51,104,52,R,L,L,418.0
52,104,53,R,L,R,325.0
53,104,54,R,R,R,491.0
54,104,55,L,R,R,353.0
55,104,56,R,R,R,363.0
56,104,57,L,L,L,303.0
57,104,58,R,L,L,353.0
58,104,59,R,L,L,423.0
59,104,60,L,R,R,509.0
60,104,61,L,L,L,403.0
61,104,62,R,L,L,427.0
62,104,63,R,R,R,493.0
63,104,64,L,L,L,419.0
64,104,65,R,L,L,375.0
65,104,66,L,L,L,423.0
66,104,67,R,R,R,469.0
67,104,68,L,L,L,379.0
68,104,69,R,R,R,443.0
69,104,70,R,R,R,460.0
70,104,71,R,R,R,403.0
71,104,72,L,L,L,415.0
72,104,73,L,R,R,415.0
74,104,75,R,L,L,363.0
75,104,76,L,R,R,395.0
76,104,77,R,R,R,393.0
77,104,78,R,L,L,363.0
78,104,79,L,L,L,359.0
79,104,80,R,R,R,490.0
80,104,81,L,L,L,408.0
81,104,82,L,R,R,390.0
82,104,83,L,L,L,339.0
83,104,84,R,R,R,355.0
84,104,85,R,L,L,355.0
85,104,86,L,L,L,487.0
86,104,87,R,R,R,417.0
87,104,88,R,L,L,421.0
88,104,89,L,R,R,497.0
89,104,90,R,L,L,417.0
90,104,91,L,R,R,453.0
91,104,92,R,R,R,413.0
92,104,93,L,L,L,505.0
93,104,94,L,R,R,431.0
94,104,95,R,L,L,341.0
95,104,96,L,R,R,425.0
96,104,97,L,R,R,563.0
97,104,98,L,L,L,386.0
98,104,99,R,R,R,403.0
99,104,100,L,R,R,445.0
100,104,101,R,R,R,431.0
101,104,102,L,L,L,421.0
102,104,103,R,R,R,521.0
103,104,104,R,L,L,433.0
105,104,106,L,L,L,367.0
106,104,107,L,R,R,341.0
107,104,108,L,L,L,357.0
108,104,109,R,R,R,437.0
109,104,110,R,L,L,348.0
110,104,111,R,FC,R,763.0
111,104,112,R,L,L,379.0
112,104,113,R,R,R,362.0
114,104,115,L,FC,R,578.0
115,104,116,L,FC,R,550.0
116,104,117,L,FC,L,472.0
117,104,118,R,FC,R,470.0
118,104,119,L,L,L,356.0
119,104,120,L,FC,R,588.0
120,104,121,R,FC,R,478.0
121,104,122,R,L,L,409.0
122,104,123,L,FC,R,387.0
123,104,124,R,R,R,438.0
124,104,125,R,L,L,377.0
125,104,126,L,FC,R,385.0
126,104,127,L,L,L,403.0
127,104,128,L,R,R,405.0
128,104,129,R,FC,L,363.0
129,104,130,L,L,L,347.0
130,104,131,L,L,L,413.0
131,104,132,L,R,R,449.0
132,104,133,R,FC,L,375.0
134,104,135,R,FC,L,459.0
135,104,136,L,R,R,431.0
136,104,137,L,R,R,445.0
137,104,138,L,L,L,411.0
138,104,139,R,FC,R,417.0
139,104,140,R,FC,L,449.0
140,104,141,L,L,L,471.0
141,104,142,R,R,R,437.0
142,104,143,L,R,R,469.0
143,104,144,R,L,L,419.0
144,104,145,L,FC,L,603.0
145,104,146,L,FC,L,479.0
146,104,147,L,R,R,518.0
147,104,148,R,R,R,462.0
148,104,149,R,FC,R,602.0
149,104,150,L,L,L,409.0
150,104,151,L,FC,L,539.0
151,104,152,L,FC,L,519.0
152,104,153,R,FC,L,524.0
153,104,154,R,R,R,499.0
154,104,155,L,FC,R,471.0
155,104,156,L,R,R,437.0
156,104,157,L,L,L,401.0
157,104,158,L,FC,R,573.0
158,104,159,R,R,R,501.0
159,104,160,L,R,R,529.0
160,104,161,R,L,L,455.0
161,104,162,L,R,R,459.0
162,104,163,R,FC,R,583.0
163,104,164,L,R,R,519.0
164,104,165,R,L,L,483.0
165,104,166,L,R,R,439.0
166,104,167,R,R,R,455.0
167,104,168,R,FC,L,579.0
168,104,169,L,L,L,459.0
169,104,170,L,FC,R,427.0
170,104,171,R,FC,R,697.0
171,104,172,L,FC,R,505.0
172,104,173,L,FC,R,447.0
173,104,174,L,R,R,557.0
174,104,175,L,FC,L,621.0
175,104,176,R,FC,L,509.0
176,104,177,R,FC,L,583.0
177,104,178,R,FC,R,523.0
178,104,179,L,FC,L,642.0
179,104,180,R,L,L,518.0
180,104,181,L,FC,R,638.0
182,104,183,L,FC,R,561.0
183,104,184,R,L,L,401.0
184,104,185,R,FC,L,553.0
185,104,186,R,R,R,435.0
186,104,187,R,FC,R,523.0
187,104,188,R,FC,R,499.0
188,104,189,R,R,R,487.0
189,104,190,L,FC,L,561.0
190,104,191,L,FC,L,597.0
191,104,192,R,L,L,421.0
192,104,193,L,FC,L,497.0
193,104,194,L,L,L,477.0
194,104,195,L,FC,L,445.0
195,104,196,R,FC,L,443.0
196,104,197,L,FC,R,547.0
198,104,199,L,L,L,401.0
199,104,200,R,FC,R,485.0
200,104,201,R,FC,R,431.0
201,104,202,R,FC,L,469.0
202,104,203,L,FC,L,395.0
203,104,204,R,L,L,481.0
204,104,205,L,FC,L,621.0
205,104,206,L,FC,R,532.0
206,104,207,L,FC,L,474.0
207,104,208,L,R,R,378.0
208,104,209,R,FC,L,403.0
210,104,211,R,L,L,342.0
211,104,212,L,R,R,402.0
212,104,213,L,L,L,438.0
213,104,214,L,FC,R,542.0
214,104,215,R,L,L,382.0
215,104,216,R,FC,L,553.0
216,104,217,R,FC,R,579.0
217,104,218,R,R,R,479.0
218,104,219,L,L,L,419.0
219,104,220,L,L,L,451.0
220,104,221,R,FC,R,457.0
221,104,222,R,R,R,537.0
222,104,223,R,FC,R,469.0
223,104,224,R,R,L,447.0
224,104,225,R,FC,R,397.0
225,104,226,R,FC,L,549.0
226,104,227,R,L,L,395.0
227,104,228,L,R,R,403.0
228,104,229,L,FC,L,620.0
229,104,230,R,FC,L,336.0
230,104,231,L,L,L,376.0
231,104,232,L,FC,L,492.0
232,104,233,R,L,L,530.0
233,104,234,L,FC,R,492.0
234,104,235,L,R,R,430.0
235,104,236,R,FC,L,540.0
236,104,237,L,L,L,384.0
237,104,238,L,L,L,412.0
238,104,239,R,R,R,434.0
239,104,240,L,FC,R,603.0
240,104,241,L,FC,R,551.0
241,104,242,L,FC,L,501.0
242,104,243,R,FC,R,777.0
243,104,244,R,L,L,401.0
244,104,245,L,FC,R,537.0
245,104,246,R,FC,R,525.0
246,104,247,L,FC,R,503.0
247,104,248,R,L,L,371.0
248,104,249,R,R,R,477.0
249,104,250,L,FC,L,637.0
250,104,251,R,FC,L,384.0
251,104,252,L,L,L,496.0
252,104,253,R,FC,L,372.0
253,104,254,L,FC,R,327.0
254,104,255,L,FC,L,328.0
255,104,256,R,FC,R,474.0
256,104,257,R,L,L,366.0
257,104,258,L,R,R,420.0
258,104,259,R,FC,L,424.0
259,104,260,R,L,L,394.0
260,104,261,L,FC,L,476.0
261,104,262,R,FC,L,380.0
262,104,263,L,R,R,444.0
263,104,264,L,R,R,354.0
264,104,265,L,L,L,396.0
265,104,266,L,R,R,392.0
266,104,267,R,L,L,426.0
267,104,268,R,FC,L,300.0
268,104,269,R,FC,L,372.0
269,104,270,R,FC,L,402.0
270,104,271,L,FC,R,426.0
271,104,272,R,FC,R,416.0
272,104,273,L,R,R,452.0
273,104,274,R,FC,R,338.0
274,104,275,R,R,L,265.0
275,104,276,R,L,L,383.0
276,104,277,R,R,R,315.0
277,104,278,L,FC,L,567.0
278,104,279,L,FC,L,417.0
279,104,280,L,R,R,377.0
280,104,281,L,FC,R,452.0
281,104,282,L,L,L,342.0
282,104,283,L,FC,R,375.0
283,104,284,R,FC,L,354.0
284,104,285,R,FC,L,262.0
285,104,286,L,R,R,446.0
286,104,287,L,R,R,456.0
287,104,288,L,FC,R,468.0
288,104,289,L,FC,R,510.0
289,104,290,L,L,L,328.0
290,104,291,R,L,R,282.0
291,104,292,L,R,R,470.0
292,104,293,L,FC,R,500.0
293,104,294,L,FC,L,352.0
294,104,295,R,R,R,414.0
295,104,296,L,FC,R,434.0
296,104,297,L,L,L,430.0
297,104,298,R,FC,L,408.0
298,104,299,R,FC,L,370.0
299,104,300,R,R,R,300.0
300,104,301,L,FC,L,384.0
301,104,302,L,L,L,336.0
302,104,303,L,L,L,360.0
305,104,306,R,L,L,324.0
306,104,307,L,FC,L,404.0
307,104,308,R,R,R,395.0
308,104,309,R,FC,R,322.0
309,104,310,R,FC,L,346.0
310,104,311,R,L,L,388.0
311,104,312,R,FC,R,499.0
312,104,313,R,FC,R,466.0
313,104,314,L,L,L,404.0
314,104,315,R,R,R,400.0
315,104,316,L,FC,L,340.0
316,104,317,R,FC,L,576.0
317,104,318,R,FC,R,340.0
318,104,319,L,L,L,432.0
319,104,320,R,L,L,418.0
320,104,321,L,FC,L,682.0
321,104,322,L,FC,R,462.0
322,104,323,R,R,R,366.0
323,104,324,L,FC,R,332.0
324,104,325,L,L,L,470.0
325,104,326,R,L,R,232.0
326,104,327,R,R,L,270.0
327,104,328,R,R,R,384.0
328,104,329,R,L,L,380.0
329,104,330,R,FC,R,524.0
330,104,331,R,R,R,460.0
331,104,332,R,FC,R,404.0
332,104,333,R,R,R,450.0
333,104,334,R,FC,R,484.0
334,104,335,R,L,L,408.0
335,104,336,R,FC,L,726.0
336,104,337,L,FC,R,287.0
337,104,338,L,R,R,533.0
338,104,339,L,FC,R,467.0
339,104,340,L,R,R,446.0
340,104,341,R,L,L,475.0
341,104,342,L,R,R,403.0
342,104,343,R,FC,L,643.0
343,104,344,L,R,R,326.0
344,104,345,L,L,L,296.0
345,104,346,R,FC,R,500.0
346,104,347,R,R,L,276.0
347,104,348,R,R,R,356.0
349,104,350,L,L,L,477.0
350,104,351,N,FC,R,506.0
351,104,352,N,FC,L,308.0
352,104,353,N,FC,R,358.0
353,104,354,R,R,R,409.0
354,104,355,N,FC,L,575.0
355,104,356,R,R,R,431.0
356,104,357,L,L,L,366.0
357,104,358,L,L,L,403.0
358,104,359,N,FC,R,393.0
359,104,360,N,FC,R,327.0
360,104,361,N,FC,R,321.0
361,104,362,R,R,L,305.0
362,104,363,R,L,R,279.0
363,104,364,R,R,R,387.0
364,104,365,N,FC,R,565.0
365,104,366,L,L,L,409.0
366,104,367,R,L,L,343.0
367,104,368,N,FC,L,362.0
368,104,369,N,FC,R,314.0
369,104,370,L,R,R,454.0
370,104,371,N,FC,L,526.0
371,104,372,N,FC,R,360.0
372,104,373,N,FC,L,460.0
373,104,374,R,R,R,432.0
374,104,375,L,L,L,306.0
375,104,376,N,FC,R,460.0
376,104,377,N,FC,L,372.0
377,104,378,R,L,L,490.0
378,104,379,L,R,R,484.0
379,104,380,N,FC,L,402.0
380,104,381,N,FC,R,470.0
381,104,382,N,FC,L,356.0
382,104,383,R,L,L,387.0
383,104,384,N,FC,L,489.0
384,104,385,L,L,L,467.0
385,104,386,R,R,R,390.0
386,104,387,R,L,L,363.0
387,104,388,R,L,L,363.0
388,104,389,N,FC,L,343.0
389,104,390,N,FC,L,483.0
390,104,391,L,R,R,395.0
391,104,392,N,FC,R,343.0
392,104,393,N,FC,L,379.0
393,104,394,R,L,R,363.0
394,104,395,N,FC,R,429.0
395,104,396,R,R,R,415.0
396,104,397,L,L,L,347.0
397,104,398,R,L,L,365.0
398,104,399,L,R,R,323.0
399,104,400,N,FC,R,463.0
400,104,401,N,FC,L,447.0
401,104,402,L,R,R,385.0
402,104,403,L,L,L,396.0
403,104,404,L,R,R,360.0
404,104,405,R,R,R,392.0
405,104,406,N,FC,R,482.0
406,104,407,R,L,L,434.0
407,104,408,N,FC,R,686.0
408,104,409,R,R,R,412.0
409,104,410,N,FC,R,374.0
410,104,411,L,R,R,384.0
411,104,412,N,FC,L,535.0
412,104,413,R,L,L,339.0
413,104,414,N,FC,L,380.0
414,104,415,N,FC,R,375.0
415,104,416,L,L,L,323.0
416,104,417,N,FC,L,475.0
417,104,418,L,R,R,423.0
418,104,419,R,R,R,393.0
419,104,420,L,L,L,427.0
420,104,421,R,L,L,433.0
421,104,422,L,R,R,467.0
422,104,423,L,R,L,321.0
423,104,424,R,L,L,397.0
424,104,425,R,R,R,349.0
425,104,426,N,FC,L,607.0
426,104,427,N,FC,R,357.0
427,104,428,N,FC,L,413.0
428,104,429,N,FC,R,331.0
429,104,430,N,FC,L,285.0
430,104,431,N,FC,R,335.0
431,104,432,L,R,L,343.0
432,104,433,N,FC,R,429.0
433,104,434,N,FC,R,451.0
434,104,435,R,L,L,517.0
435,104,436,L,L,L,369.0
436,104,437,R,R,R,442.0
437,104,438,N,FC,L,506.0
438,104,439,L,L,L,472.0
439,104,440,L,L,L,425.0
440,104,441,N,FC,R,583.0
441,104,442,N,FC,L,541.0
442,104,443,N,FC,R,526.0
443,104,444,L,R,R,511.0
444,104,445,L,L,L,381.0
445,104,446,R,R,R,449.0
446,104,447,N,FC,L,615.0
447,104,448,R,R,R,471.0
448,104,449,N,FC,L,613.0
449,104,450,R,L,L,515.0
450,104,451,N,FC,L,495.0
451,104,452,N,FC,R,663.0
452,104,453,N,FC,L,375.0
453,104,454,N,FC,R,595.0
454,104,455,L,R,R,395.0
455,104,456,N,FC,R,295.0
456,104,457,N,FC,L,407.0
457,104,458,N,FC,L,409.0
458,104,459,N,FC,L,439.0
459,104,460,N,FC,R,395.0
460,104,461,N,FC,R,309.0
461,104,462,L,R,L,283.0
462,104,463,L,L,L,419.0
463,104,464,N,FC,R,347.0
464,104,465,R,R,R,429.0
465,104,466,N,FC,L,619.0
466,104,467,R,L,L,431.0
467,104,468,L,R,R,340.0
468,104,469,L,,{UPARROW},708.0
469,104,470,R,,{UPARROW},478.0
470,104,471,R,,{DOWNARROW},198.0
471,104,472,R,,{UPARROW},372.0
472,104,473,L,,{UPARROW},226.0
473,104,474,R,,{UPARROW},205.0
474,104,475,L,,{DOWNARROW},425.0
475,104,476,L,,{DOWNARROW},385.0
476,104,477,L,,{UPARROW},361.0
477,104,478,L,,{UPARROW},3445.0
478,104,479,L,,{DOWNARROW},273.0
479,104,480,R,,{UPARROW},414.0
480,104,481,R,,{UPARROW},340.0
481,104,482,R,,{DOWNARROW},484.0
482,104,483,L,,{DOWNARROW},476.0
483,104,484,L,,{UPARROW},278.0
484,104,485,R,,{DOWNARROW},312.0
485,104,486,R,,{DOWNARROW},586.0
486,104,487,R,,{UPARROW},601.0
487,104,488,L,,{UPARROW},465.0
488,104,489,L,,{UPARROW},892.0
489,104,490,L,,{DOWNARROW},999.0
490,104,491,L,,{UPARROW},482.0
491,104,492,L,,{UPARROW},438.0
492,104,493,R,,{UPARROW},546.0
493,104,494,R,,{UPARROW},394.0
494,104,495,L,,{DOWNARROW},556.0
495,104,496,R,,{UPARROW},298.0
496,104,497,L,,{DOWNARROW},416.0
497,104,498,R,,{DOWNARROW},246.0
498,104,499,L,,{UPARROW},290.0
499,104,500,L,,{DOWNARROW},312.0
500,104,501,R,,{DOWNARROW},865.0
501,104,502,R,,{UPARROW},236.0
502,104,503,L,,{UPARROW},366.0
503,104,504,R,,{DOWNARROW},362.0
504,104,505,L,,{UPARROW},322.0
505,104,506,R,,{DOWNARROW},342.0
506,104,507,R,,{UPARROW},446.0
507,104,508,R,,{DOWNARROW},410.0
508,104,509,R,,{UPARROW},440.0
509,104,510,L,,{UPARROW},272.0
510,104,511,L,,{DOWNARROW},262.0
511,104,512,R,,{DOWNARROW},258.0
512,104,513,R,,{UPARROW},368.0
513,104,514,R,,{UPARROW},383.0
514,104,515,R,,{DOWNARROW},226.0
515,104,516,L,,{DOWNARROW},318.0
516,104,517,L,,{UPARROW},306.0
517,104,518,L,,{UPARROW},474.0
1,105,2,R,L,L,441
2,105,3,L,R,R,476
3,105,4,L,R,R,396
4,105,5,L,L,L,396
5,105,6,R,R,R,428
6,105,7,R,R,R,354
7,105,8,R,R,R,334
8,105,9,R,L,R,318
9,105,10,L,R,R,442
10,105,11,L,L,L,418
11,105,12,L,L,L,418
12,105,13,R,L,L,422
13,105,14,R,R,R,486
14,105,15,L,R,R,520
15,105,16,L,L,L,408
17,105,18,R,FC,L,728
18,105,19,R,L,L,422
19,105,20,R,L,R,314
20,105,21,L,FC,L,542
21,105,22,L,FC,L,750
22,105,23,R,FC,L,676
23,105,24,L,FC,L,484
24,105,25,R,R,R,427
25,105,26,L,L,L,361
26,105,27,L,R,R,445
27,105,28,L,R,R,419
28,105,29,L,L,L,379
29,105,30,L,L,L,302
30,105,31,R,R,R,402
31,105,32,L,FC,L,522
32,105,33,R,FC,L,478
33,105,34,L,FC,L,430
34,105,35,R,R,R,496
35,105,36,R,FC,L,457
36,105,37,R,L,L,396
37,105,38,L,FC,L,480
38,105,39,L,R,R,428
39,105,40,R,R,R,438
40,105,41,L,L,L,298
41,105,42,R,FC,L,370
42,105,43,R,L,L,400
43,105,44,L,FC,L,296
44,105,45,R,FC,L,368
45,105,46,R,FC,L,334
46,105,47,L,FC,R,380
47,105,48,L,R,L,452
48,105,49,R,R,R,393
49,105,50,L,R,L,354
50,105,51,R,L,L,419
51,105,52,R,L,L,443
52,105,53,R,L,L,475
53,105,54,R,L,L,439
54,105,55,R,L,L,459
55,105,56,R,R,R,351
56,105,57,L,L,L,345
57,105,58,R,R,R,511
58,105,59,R,L,L,457
59,105,60,R,L,L,461
60,105,61,L,L,L,369
61,105,62,L,L,L,430
62,105,63,L,L,L,380
63,105,64,R,R,R,500
64,105,65,L,R,R,459
65,105,66,R,L,L,480
66,105,67,L,R,R,431
67,105,68,R,R,R,421
68,105,69,L,R,R,417
69,105,70,R,R,R,353
70,105,71,L,R,R,435
71,105,72,L,L,L,519
72,105,73,R,R,R,323
73,105,74,R,R,R,327
74,105,75,R,L,L,473
75,105,76,L,L,L,391
76,105,77,R,R,R,353
77,105,78,R,R,R,363
78,105,79,L,R,R,423
79,105,80,L,L,L,395
80,105,81,R,R,R,451
81,105,82,L,L,L,377
82,105,83,L,L,L,321
83,105,84,R,L,L,453
84,105,85,L,R,R,391
85,105,86,R,L,L,373
86,105,87,L,R,R,415
87,105,88,R,R,R,399
88,105,89,L,L,L,351
89,105,90,L,R,R,389
90,105,91,R,R,R,351
91,105,92,L,L,L,384
92,105,93,L,R,R,440
93,105,94,L,L,L,440
94,105,95,R,R,R,436
95,105,96,L,R,L,300
96,105,97,L,L,L,468
97,105,98,L,R,R,402
98,105,99,R,L,L,473
99,105,100,R,L,L,479
100,105,101,L,L,L,375
101,105,102,L,R,R,435
102,105,103,R,R,R,376
103,105,104,R,L,L,447
104,105,105,L,R,R,409
105,105,106,L,R,R,427
106,105,107,L,L,L,413
107,105,108,R,L,R,305
108,105,109,R,FC,L,649
109,105,110,R,R,R,475
110,105,111,R,R,R,379
111,105,112,R,FC,R,411
112,105,113,R,FC,L,549
113,105,114,R,FC,L,547
114,105,115,L,L,L,416
115,105,116,L,FC,R,449
116,105,117,L,FC,R,442
117,105,118,R,FC,R,490
118,105,119,L,R,R,392
119,105,120,R,FC,R,458
120,105,121,L,FC,R,422
121,105,122,R,FC,L,450
122,105,123,R,R,R,472
123,105,124,L,FC,R,430
124,105,125,R,L,L,444
125,105,126,L,R,R,446
126,105,127,L,FC,R,448
127,105,128,L,FC,L,510
128,105,129,R,R,R,448
129,105,130,R,FC,L,478
130,105,131,L,FC,L,338
131,105,132,L,L,L,417
132,105,133,R,FC,L,425
133,105,134,L,FC,R,363
134,105,135,L,FC,R,423
135,105,136,L,R,R,206
136,105,137,L,R,R,547
137,105,138,R,FC,R,437
138,105,139,R,L,L,397
139,105,140,L,R,R,429
140,105,141,R,R,R,307
141,105,142,L,FC,R,397
142,105,143,R,L,L,429
143,105,144,R,R,R,371
144,105,145,L,L,L,464
145,105,146,L,R,L,310
146,105,147,R,FC,R,516
147,105,148,L,FC,R,640
148,105,149,R,L,L,428
149,105,150,R,R,R,402
150,105,151,R,FC,R,418
151,105,152,L,R,R,393
152,105,153,L,L,R,308
153,105,154,R,FC,L,498
154,105,155,L,FC,L,566
155,105,156,L,FC,R,444
156,105,157,R,FC,R,386
157,105,158,R,L,L,420
158,105,159,R,R,R,396
159,105,160,R,FC,L,504
160,105,161,R,L,L,492
161,105,162,R,FC,R,466
162,105,163,L,FC,R,440
163,105,164,R,L,L,472
164,105,165,R,R,R,366
165,105,166,L,L,L,320
166,105,167,L,L,L,356
167,105,168,L,FC,L,535
168,105,169,L,R,R,451
169,105,170,R,L,L,457
170,105,171,R,R,R,381
171,105,172,L,L,L,417
172,105,173,R,R,R,532
173,105,174,L,FC,L,498
174,105,175,R,FC,R,410
175,105,176,L,FC,R,288
176,105,177,L,FC,R,278
177,105,178,R,R,R,174
178,105,179,R,FC,L,422
179,105,180,L,FC,L,382
180,105,181,L,FC,R,306
181,105,182,R,L,L,436
182,105,183,R,L,L,444
183,105,184,L,R,R,418
184,105,185,L,FC,R,442
185,105,186,L,FC,R,446
186,105,187,L,L,L,396
187,105,188,L,FC,R,424
188,105,189,R,L,L,454
189,105,190,L,R,R,402
190,105,191,L,L,L,422
191,105,192,R,L,L,430
192,105,193,R,R,R,452
193,105,194,R,FC,L,482
194,105,195,L,FC,R,534
195,105,196,L,L,L,388
196,105,197,R,L,L,450
197,105,198,L,FC,L,308
198,105,199,L,FC,L,454
199,105,200,R,FC,R,407
200,105,201,R,FC,R,169
201,105,202,L,FC,R,307
202,105,203,L,R,R,421
203,105,204,L,L,L,421
204,105,205,L,R,R,381
205,105,206,L,L,L,328
206,105,207,R,FC,R,430
207,105,208,R,R,R,408
208,105,209,L,FC,R,450
209,105,210,L,L,L,417
210,105,211,R,FC,R,328
211,105,212,L,L,L,326
212,105,213,L,R,L,336
213,105,214,R,L,L,440
215,105,216,R,FC,L,552
216,105,217,R,FC,L,478
217,105,218,L,R,R,394
218,105,219,L,FC,L,524
219,105,220,R,FC,R,448
220,105,221,L,FC,R,498
221,105,222,L,R,R,414
222,105,223,R,FC,R,498
223,105,224,R,FC,R,482
224,105,225,R,FC,R,262
225,105,226,L,L,L,354
226,105,227,R,R,R,347
227,105,228,R,FC,R,393
228,105,229,L,FC,R,495
229,105,230,R,FC,R,279
230,105,231,R,FC,R,322
231,105,232,L,FC,R,358
232,105,233,L,L,L,470
233,105,234,R,FC,L,509
234,105,235,L,FC,R,407
235,105,236,L,R,L,336
236,105,237,R,FC,R,424
237,105,238,L,FC,R,390
238,105,239,R,FC,R,408
239,105,240,L,FC,R,438
240,105,241,L,R,R,410
241,105,242,L,L,L,364
242,105,243,L,R,R,400
243,105,244,L,R,R,415
244,105,245,L,L,L,355
245,105,246,L,FC,R,447
246,105,247,L,R,R,401
247,105,248,R,R,R,341
248,105,249,R,L,L,485
249,105,250,R,R,R,339
250,105,251,L,FC,R,451
251,105,252,R,L,L,473
252,105,253,L,FC,R,483
253,105,254,L,L,L,355
254,105,255,L,R,R,383
255,105,256,L,FC,R,519
256,105,257,R,R,R,343
257,105,258,L,FC,R,435
258,105,259,L,L,L,415
259,105,260,R,R,R,311
260,105,261,L,FC,R,409
261,105,262,R,R,R,331
262,105,263,L,L,L,389
263,105,264,R,FC,R,279
264,105,265,R,FC,R,475
265,105,266,L,R,R,383
266,105,267,R,FC,R,459
267,105,268,R,R,R,346
268,105,269,R,L,L,508
269,105,270,R,FC,R,286
270,105,271,R,L,R,284
271,105,272,L,R,R,426
272,105,273,L,L,L,335
273,105,274,R,FC,R,495
274,105,275,R,R,R,403
275,105,276,R,L,L,393
276,105,277,R,FC,R,391
277,105,278,L,R,R,425
278,105,279,L,FC,R,543
279,105,280,R,R,L,435
280,105,281,R,L,L,443
281,105,282,R,L,L,487
282,105,283,L,R,R,357
283,105,284,R,R,R,465
284,105,285,L,L,L,391
285,105,286,R,L,L,501
286,105,287,L,FC,R,517
287,105,288,L,FC,R,453
288,105,289,L,FC,R,403
289,105,290,L,FC,R,423
290,105,291,R,R,R,375
291,105,292,R,L,L,445
292,105,293,L,L,L,455
293,105,294,L,R,R,407
294,105,295,R,FC,R,477
295,105,296,R,FC,R,481
296,105,297,R,L,L,389
297,105,298,L,FC,L,355
298,105,299,R,FC,L,477
299,105,300,L,L,R,436
300,105,301,R,R,R,480
301,105,302,R,FC,R,504
302,105,303,L,R,R,428
303,105,304,R,L,L,429
304,105,305,R,R,R,339
305,105,306,L,FC,R,463
306,105,307,L,FC,R,467
307,105,308,R,FC,R,398
308,105,309,L,FC,R,457
309,105,310,L,FC,R,421
310,105,311,R,FC,R,453
311,105,312,L,FC,R,423
312,105,313,R,FC,L,469
313,105,314,R,FC,L,391
314,105,315,L,R,R,433
315,105,316,L,L,L,371
316,105,317,R,R,R,385
317,105,318,L,FC,R,555
318,105,319,R,L,L,439
319,105,320,R,FC,R,551
320,105,321,R,R,R,305
321,105,322,L,FC,R,411
322,105,323,L,L,L,437
323,105,324,R,R,R,357
324,105,325,R,FC,R,377
325,105,326,R,FC,R,381
326,105,327,L,L,L,328
327,105,328,L,L,L,318
328,105,329,R,FC,R,533
329,105,330,L,R,R,392
330,105,331,R,FC,R,434
331,105,332,R,FC,R,302
332,105,333,R,FC,R,434
333,105,334,L,FC,R,438
334,105,335,R,L,L,358
335,105,336,L,FC,L,346
336,105,337,R,FC,L,444
337,105,338,R,FC,R,314
338,105,339,R,FC,L,396
339,105,340,L,FC,L,404
340,105,341,R,L,L,401
341,105,342,L,FC,L,301
342,105,343,L,FC,R,321
343,105,344,L,R,R,389
344,105,345,R,L,L,384
345,105,346,L,L,L,351
346,105,347,L,FC,R,429
347,105,348,R,FC,R,399
348,105,349,N,FC,R,456
349,105,350,N,FC,R,380
350,105,351,L,R,R,328
351,105,352,R,R,R,354
352,105,353,N,FC,R,300
353,105,354,N,FC,R,292
354,105,355,N,FC,L,378
355,105,356,R,L,R,290
356,105,357,L,L,L,344
357,105,358,N,FC,L,348
358,105,359,R,R,R,302
359,105,360,N,FC,L,378
360,105,361,L,L,L,302
361,105,362,N,FC,R,362
362,105,363,N,FC,L,434
363,105,364,L,L,L,362
364,105,365,N,FC,R,346
365,105,366,R,R,R,300
366,105,367,N,FC,L,483
367,105,368,L,L,L,295
368,105,369,R,L,L,403
369,105,370,L,R,L,305
370,105,371,R,L,L,436
371,105,372,R,R,R,322
372,105,373,N,FC,L,382
373,105,374,R,L,L,506
374,105,375,L,R,R,432
375,105,376,L,L,L,330
376,105,377,L,L,L,440
377,105,378,N,FC,R,464
378,105,379,R,R,R,398
379,105,380,N,FC,R,422
380,105,381,N,FC,L,442
381,105,382,N,FC,R,442
382,105,383,L,L,L,418
383,105,384,R,R,R,318
384,105,385,L,R,R,414
385,105,386,N,FC,L,474
386,105,387,L,L,L,422
387,105,388,R,R,R,338
388,105,389,N,FC,R,422
389,105,390,N,FC,R,770
390,105,391,R,R,R,384
391,105,392,R,L,L,484
392,105,393,N,FC,R,436
393,105,394,N,FC,R,512
394,105,395,N,FC,R,366
395,105,396,N,FC,R,300
396,105,397,N,FC,R,348
398,105,399,R,R,R,365
399,105,400,N,FC,R,355
400,105,401,N,FC,R,359
401,105,402,N,FC,R,343
402,105,403,N,FC,L,410
403,105,404,N,FC,L,400
404,105,405,L,R,R,552
405,105,406,N,FC,R,398
406,105,407,N,FC,L,459
407,105,408,N,FC,R,342
409,105,410,L,R,R,466
410,105,411,N,FC,R,308
411,105,412,R,R,R,318
412,105,413,R,L,L,426
413,105,414,R,R,R,360
414,105,415,R,R,R,336
415,105,416,N,FC,R,392
416,105,417,L,L,L,390
417,105,418,R,R,R,320
418,105,419,N,FC,R,396
419,105,420,L,R,R,504
420,105,421,N,FC,R,524
421,105,422,N,FC,R,388
422,105,423,R,L,L,406
423,105,424,L,R,R,376
424,105,425,N,FC,R,416
425,105,426,L,R,R,387
426,105,427,L,L,L,365
427,105,428,L,R,R,415
428,105,429,N,FC,R,403
429,105,430,N,FC,R,245
430,105,431,L,R,R,387
431,105,432,L,L,L,441
432,105,433,L,L,L,437
433,105,434,N,FC,R,477
434,105,435,R,R,R,325
435,105,436,R,L,R,291
436,105,437,N,FC,R,405
437,105,438,N,FC,R,439
438,105,439,N,FC,R,419
439,105,440,N,FC,L,350
440,105,441,R,R,R,424
441,105,442,N,FC,R,430
442,105,443,N,FC,R,404
443,105,444,R,L,L,387
444,105,445,L,R,R,376
445,105,446,L,L,L,380
446,105,447,L,R,R,496
447,105,448,N,FC,R,456
448,105,449,R,L,L,440
449,105,450,N,FC,R,340
450,105,451,R,L,L,384
451,105,452,N,FC,R,488
452,105,453,N,FC,R,453
453,105,454,N,FC,R,495
454,105,455,N,FC,R,475
455,105,456,L,R,R,383
456,105,457,N,FC,R,363
457,105,458,L,L,L,363
458,105,459,L,L,L,355
459,105,460,N,FC,R,395
460,105,461,L,R,R,379
461,105,462,N,FC,R,403
462,105,463,N,FC,R,365
463,105,464,N,FC,R,391
464,105,465,N,FC,R,385
465,105,466,R,L,L,443
466,105,467,N,FC,R,363
467,105,468,R,L,L,471
468,105,469,R,,{DOWNARROW},1448
469,105,470,R,,{DOWNARROW},934
470,105,471,L,,{UPARROW},1046
471,105,472,L,,{DOWNARROW},740
472,105,473,R,,{DOWNARROW},1268
473,105,474,R,,{UPARROW},660
474,105,475,L,,{DOWNARROW},602
475,105,476,R,,{UPARROW},504
476,105,477,L,,{DOWNARROW},722
477,105,478,R,,{UPARROW},568
478,105,479,R,,{DOWNARROW},1440
479,105,480,L,,{DOWNARROW},2926
480,105,481,L,,{DOWNARROW},1368
481,105,482,R,,{DOWNARROW},1946
482,105,483,L,,{UPARROW},1103
483,105,484,R,,{UPARROW},6173
484,105,485,R,,{DOWNARROW},4588
485,105,486,R,,{DOWNARROW},1492
486,105,487,R,,{DOWNARROW},1920
487,105,488,L,,{UPARROW},554
488,105,489,L,,{UPARROW},4226
489,105,490,L,,{UPARROW},652
490,105,491,R,,{UPARROW},883
491,105,492,R,,{DOWNARROW},2889
492,105,493,L,,{UPARROW},1573
493,105,494,R,,{DOWNARROW},905
494,105,495,L,,{UPARROW},991
495,105,496,R,,{DOWNARROW},3559
496,105,497,L,,{UPARROW},644
497,105,498,R,,{DOWNARROW},3630
498,105,499,R,,{UPARROW},358
499,105,500,R,,{DOWNARROW},4829
500,105,501,L,,{DOWNARROW},1533
501,105,502,L,,{UPARROW},7789
502,105,503,L,,{UPARROW},1009
503,105,504,L,,{UPARROW},809
504,105,505,R,,{DOWNARROW},617
505,105,506,L,,{UPARROW},5485
506,105,507,R,,{DOWNARROW},598
507,105,508,L,,{UPARROW},2801
508,105,509,L,,{UPARROW},1099
509,105,510,R,,{UPARROW},4937
510,105,511,L,,{DOWNARROW},2573
511,105,512,L,,{UPARROW},789
512,105,513,L,,{DOWNARROW},1505
513,105,514,L,,{UPARROW},2303
514,105,515,R,,{DOWNARROW},805
515,105,516,R,,{UPARROW},2962
516,105,517,R,,{UPARROW},560
517,105,518,L,,{DOWNARROW},898
2,106,3,L,L,R,487
6,106,7,L,R,R,557
8,106,9,R,R,L,513
10,106,11,R,R,L,497
13,106,14,L,R,L,517
16,106,17,R,L,R,357
19,106,20,R,L,R,224
21,106,22,L,FC,L,635
24,106,25,L,R,R,518
25,106,26,R,L,L,418
26,106,27,L,FC,R,826
27,106,28,R,R,R,484
28,106,29,L,FC,R,580
29,106,30,L,R,R,388
30,106,31,L,FC,L,282
31,106,32,L,L,L,562
32,106,33,R,R,R,426
33,106,34,R,FC,R,572
34,106,35,R,FC,R,542
35,106,36,R,FC,R,541
36,106,37,L,R,R,409
37,106,38,R,FC,R,531
38,106,39,L,L,L,449
39,106,40,R,R,R,451
40,106,41,R,FC,R,537
41,106,42,L,FC,R,600
42,106,43,L,L,L,424
43,106,44,L,FC,R,547
44,106,45,R,FC,R,488
45,106,46,L,FC,R,486
46,106,47,L,L,L,412
47,106,48,R,FC,R,686
49,106,50,L,L,L,445
50,106,51,L,L,L,452
51,106,52,L,L,L,441
52,106,53,R,R,R,449
53,106,54,R,R,R,423
54,106,55,L,R,R,417
55,106,56,R,L,L,469
56,106,57,L,R,R,419
57,106,58,L,L,L,367
58,106,59,L,R,L,361
59,106,60,L,R,R,469
60,106,61,R,R,R,463
61,106,62,L,L,L,451
62,106,63,L,L,L,377
63,106,64,R,L,R,301
64,106,65,R,R,R,384
65,106,66,R,L,L,450
66,106,67,L,L,L,448
67,106,68,L,R,R,386
68,106,69,L,R,R,460
69,106,70,R,R,R,440
70,106,71,R,L,L,464
71,106,72,L,L,L,390
72,106,73,R,L,L,496
73,106,74,R,R,R,497
74,106,75,L,L,L,440
75,106,76,R,L,L,396
76,106,77,R,L,L,432
77,106,78,R,L,L,450
78,106,79,L,L,L,416
79,106,80,L,L,L,372
80,106,81,R,R,R,406
81,106,82,L,R,R,472
82,106,83,L,R,L,422
84,106,85,L,R,R,458
85,106,86,R,L,L,542
86,106,87,L,L,L,450
87,106,88,R,R,R,448
88,106,89,L,R,R,469
89,106,90,L,R,R,431
90,106,91,L,R,R,473
91,106,92,R,L,R,323
92,106,93,R,L,L,489
93,106,94,L,R,R,502
94,106,95,R,R,R,350
95,106,96,R,R,R,473
96,106,97,R,R,R,362
97,106,98,R,L,L,450
98,106,99,R,R,R,360
99,106,100,R,R,R,380
100,106,101,L,L,L,388
101,106,102,R,L,L,538
102,106,103,L,R,R,390
103,106,104,R,L,L,460
104,106,105,R,R,R,348
105,106,106,R,L,L,450
106,106,107,L,L,R,336
107,106,108,L,L,L,408
108,106,109,R,L,L,460
109,106,110,L,FC,L,555
110,106,111,L,FC,L,619
111,106,112,R,L,L,507
112,106,113,R,R,R,517
113,106,114,L,L,L,477
114,106,115,L,R,R,457
115,106,116,R,FC,R,669
116,106,117,R,R,R,444
117,106,118,L,L,L,403
118,106,119,L,FC,L,525
119,106,120,L,FC,L,447
120,106,121,R,FC,L,549
121,106,122,R,L,L,487
122,106,123,L,FC,L,509
123,106,124,L,R,R,451
124,106,125,L,L,L,409
125,106,126,L,FC,L,367
126,106,127,R,FC,L,328
127,106,128,R,R,R,394
128,106,129,L,L,L,384
129,106,130,R,R,R,472
130,106,131,R,FC,R,522
131,106,132,R,L,L,482
132,106,133,R,FC,L,502
133,106,134,R,R,R,338
134,106,135,R,FC,R,385
135,106,136,R,FC,R,411
136,106,137,L,FC,R,525
137,106,138,L,R,L,467
138,106,139,L,L,L,501
139,106,140,R,FC,R,517
140,106,141,R,FC,R,354
141,106,142,R,FC,R,455
142,106,143,L,R,R,475
143,106,144,L,FC,R,467
144,106,145,L,FC,R,449
145,106,146,R,FC,R,399
146,106,147,L,FC,R,399
147,106,148,R,FC,R,295
148,106,149,R,FC,R,215
149,106,150,R,R,R,199
150,106,151,R,L,R,274
151,106,152,L,R,R,446
152,106,153,R,L,R,384
153,106,154,L,FC,R,534
154,106,155,R,FC,R,342
155,106,156,R,R,R,242
156,106,157,L,L,R,162
157,106,158,L,L,L,344
158,106,159,L,FC,L,250
159,106,160,L,FC,L,340
160,106,161,R,FC,L,420
161,106,162,R,FC,R,232
162,106,163,L,FC,R,251
163,106,164,R,R,R,256
164,106,165,L,FC,R,144
165,106,166,R,FC,R,238
166,106,167,L,FC,R,226
167,106,168,L,L,R,232
168,106,169,R,FC,R,469
169,106,170,R,FC,R,427
170,106,171,R,FC,R,289
171,106,172,L,FC,R,231
172,106,173,R,L,R,273
173,106,174,R,R,L,493
174,106,175,L,FC,R,573
175,106,176,R,FC,R,349
176,106,177,R,L,R,223
177,106,178,L,FC,R,513
178,106,179,L,FC,R,235
179,106,180,R,L,R,251
180,106,181,L,R,L,313
181,106,182,R,FC,R,332
182,106,183,R,FC,R,402
183,106,184,R,FC,R,456
184,106,185,L,FC,R,440
185,106,186,L,FC,R,392
186,106,187,R,L,R,370
187,106,188,R,FC,R,460
188,106,189,L,L,L,468
189,106,190,L,FC,R,550
190,106,191,L,R,R,368
191,106,192,R,L,L,446
192,106,193,L,L,L,424
193,106,194,R,R,L,318
194,106,195,L,FC,R,501
195,106,196,R,R,R,369
196,106,197,R,L,L,363
197,106,198,L,R,R,303
198,106,199,R,FC,R,373
199,106,200,L,L,L,375
200,106,201,L,R,R,351
201,106,202,R,L,L,433
202,106,203,L,FC,R,565
203,106,204,L,L,L,371
204,106,205,L,R,L,345
205,106,206,R,L,R,319
206,106,207,L,R,L,499
207,106,208,L,R,R,255
208,106,209,R,FC,R,607
209,106,210,R,FC,R,457
210,106,211,L,L,L,361
211,106,212,R,R,R,361
212,106,213,R,FC,R,449
213,106,214,L,FC,R,663
214,106,215,L,R,R,431
215,106,216,R,L,L,365
216,106,217,R,R,R,335
217,106,218,L,R,R,463
218,106,219,L,FC,R,415
219,106,220,R,FC,R,371
220,106,221,L,FC,R,413
221,106,222,L,FC,R,419
222,106,223,L,L,L,430
223,106,224,L,R,R,364
224,106,225,L,L,L,420
225,106,226,R,R,R,227
226,106,227,R,R,R,345
227,106,228,L,FC,L,311
228,106,229,L,FC,R,715
229,106,230,R,L,R,351
230,106,231,R,FC,R,541
231,106,232,R,L,L,421
232,106,233,R,R,R,337
233,106,234,L,FC,R,501
234,106,235,L,FC,R,421
235,106,236,L,FC,R,429
236,106,237,L,FC,R,771
237,106,238,R,L,L,389
238,106,239,L,FC,R,435
239,106,240,L,R,R,351
240,106,241,L,R,L,361
241,106,242,L,L,R,197
242,106,243,L,R,L,377
243,106,244,L,L,R,356
244,106,245,R,FC,R,628
245,106,246,L,FC,R,706
246,106,247,L,R,R,396
247,106,248,L,L,L,428
248,106,249,L,FC,R,498
249,106,250,L,FC,R,474
250,106,251,R,L,L,466
251,106,252,L,R,R,308
252,106,253,R,L,L,482
253,106,254,R,R,R,354
254,106,255,R,FC,R,476
255,106,256,R,FC,R,372
256,106,257,R,R,R,342
257,106,258,L,L,L,466
258,106,259,R,L,L,496
259,106,260,L,FC,R,472
260,106,261,R,FC,R,302
261,106,262,L,FC,R,318
262,106,263,R,R,R,350
263,106,264,R,FC,R,368
264,106,265,L,FC,R,462
265,106,266,L,L,R,301
266,106,267,R,FC,L,697
267,106,268,R,FC,L,408
268,106,269,L,R,R,390
269,106,270,R,FC,R,548
270,106,271,R,L,R,342
271,106,272,L,R,L,364
272,106,273,R,FC,R,598
273,106,274,L,FC,R,410
274,106,275,R,R,R,376
275,106,276,L,L,L,404
276,106,277,L,R,R,322
277,106,278,R,FC,R,498
278,106,279,L,R,R,366
279,106,280,R,FC,R,487
280,106,281,R,L,L,470
281,106,282,R,R,R,336
282,106,283,R,FC,R,420
283,106,284,L,R,R,440
284,106,285,R,FC,R,444
285,106,286,R,L,L,486
286,106,287,R,FC,R,384
287,106,288,R,FC,R,488
288,106,289,R,R,R,330
289,106,290,L,FC,R,504
290,106,291,L,L,L,447
291,106,292,R,FC,R,337
292,106,293,R,FC,R,502
293,106,294,R,R,R,337
294,106,295,L,FC,R,417
295,106,296,R,FC,R,273
296,106,297,R,FC,R,255
297,106,298,L,L,R,327
298,106,299,R,L,L,425
299,106,300,L,FC,R,439
300,106,301,R,R,R,375
301,106,302,R,L,L,495
302,106,303,R,R,R,407
303,106,304,R,FC,R,461
304,106,305,L,FC,R,445
305,106,306,L,FC,R,431
306,106,307,L,FC,R,549
307,106,308,L,FC,R,483
308,106,309,L,FC,R,503
309,106,310,L,FC,R,707
310,106,311,L,FC,R,317
311,106,312,R,R,R,345
312,106,313,R,FC,R,392
313,106,314,R,FC,R,306
314,106,315,R,L,R,259
315,106,316,R,FC,R,463
316,106,317,L,FC,R,394
317,106,318,L,FC,R,313
318,106,319,R,R,R,303
319,106,320,L,FC,R,395
320,106,321,R,L,R,263
321,106,322,L,R,R,333
322,106,323,L,FC,R,415
323,106,324,L,L,L,399
324,106,325,L,L,L,439
325,106,326,R,R,R,351
326,106,327,L,L,L,381
327,106,328,L,L,L,401
328,106,329,L,FC,R,445
329,106,330,L,R,R,411
330,106,331,R,FC,R,465
331,106,332,R,FC,R,267
332,106,333,R,L,L,545
333,106,334,L,L,R,197
334,106,335,R,R,R,405
335,106,336,R,FC,R,435
336,106,337,L,FC,R,370
337,106,338,L,R,R,316
338,106,339,L,FC,R,388
339,106,340,L,L,L,415
340,106,341,R,L,L,478
341,106,342,R,FC,R,466
342,106,343,R,R,R,316
343,106,344,R,FC,R,268
344,106,345,L,R,R,346
345,106,346,L,L,L,440
346,106,347,R,FC,R,348
347,106,348,L,R,R,386
348,106,349,R,R,R,344
349,106,350,N,FC,R,380
350,106,351,L,R,R,406
351,106,352,L,L,L,352
352,106,353,L,L,L,462
353,106,354,N,FC,R,518
354,106,355,R,R,R,250
355,106,356,L,L,L,396
356,106,357,L,R,R,336
357,106,358,N,FC,R,420
358,106,359,R,L,R,296
359,106,360,R,R,R,456
360,106,361,N,FC,R,456
361,106,362,N,FC,R,532
362,106,363,N,FC,R,394
363,106,364,N,FC,R,276
364,106,365,N,FC,R,376
365,106,366,N,FC,R,340
366,106,367,L,L,L,460
367,106,368,N,FC,R,516
368,106,369,N,FC,R,388
369,106,370,L,R,R,418
370,106,371,N,FC,R,670
371,106,372,R,R,R,412
372,106,373,N,FC,R,362
373,106,374,R,L,R,330
374,106,375,N,FC,R,620
375,106,376,N,FC,R,563
377,106,378,R,R,R,282
378,106,379,R,R,R,381
379,106,380,R,L,R,297
380,106,381,N,FC,L,605
381,106,382,N,FC,R,415
382,106,383,N,FC,R,439
383,106,384,N,FC,R,403
384,106,385,R,R,R,415
385,106,386,N,FC,R,387
386,106,387,R,R,R,237
387,106,388,L,L,L,376
388,106,389,N,FC,R,377
389,106,390,L,L,L,485
390,106,391,R,R,R,335
391,106,392,N,FC,R,383
392,106,393,N,FC,R,323
393,106,394,L,R,R,367
394,106,395,L,L,L,405
395,106,396,R,R,R,327
396,106,397,R,R,R,317
397,106,398,N,FC,R,413
398,106,399,N,FC,R,458
399,106,400,L,L,L,337
400,106,401,N,FC,L,365
401,106,402,R,R,R,312
402,106,403,N,FC,R,485
403,106,404,N,FC,R,279
404,106,405,N,FC,R,347
405,106,406,L,R,R,329
406,106,407,N,FC,R,423
407,106,408,R,L,L,397
408,106,409,L,R,R,297
409,106,410,N,FC,R,277
410,106,411,L,R,L,405
411,106,412,N,FC,R,547
412,106,413,R,L,R,289
413,106,414,N,FC,R,347
414,106,415,N,FC,R,401
415,106,416,L,R,R,317
416,106,417,N,FC,R,421
417,106,418,N,FC,R,285
418,106,419,N,FC,R,363
419,106,420,L,L,L,483
420,106,421,N,FC,R,315
421,106,422,L,R,R,363
422,106,423,N,FC,R,439
423,106,424,N,FC,R,318
424,106,425,N,FC,R,450
425,106,426,L,L,L,448
426,106,427,R,L,L,430
427,106,428,L,R,R,340
428,106,429,R,L,L,404
429,106,430,N,FC,R,492
430,106,431,N,FC,R,366
431,106,432,R,L,R,312
432,106,433,L,R,R,376
433,106,434,L,L,R,384
434,106,435,N,FC,R,338
435,106,436,N,FC,R,426
436,106,437,N,FC,R,404
437,106,438,R,L,R,342
438,106,439,L,R,R,490
439,106,440,L,L,L,364
440,106,441,N,FC,R,616
441,106,442,R,L,L,384
442,106,443,N,FC,R,612
443,106,444,N,FC,R,422
444,106,445,L,R,R,358
445,106,446,L,L,L,454
446,106,447,R,R,R,310
447,106,448,N,FC,R,432
448,106,449,R,L,L,546
449,106,450,R,L,L,360
450,106,451,N,FC,R,284
451,106,452,N,FC,R,398
452,106,453,R,R,R,302
453,106,454,L,L,L,406
454,106,455,N,FC,R,300
455,106,456,N,FC,L,396
456,106,457,L,R,R,320
457,106,458,N,FC,R,372
458,106,459,R,R,R,294
459,106,460,N,FC,R,374
460,106,461,N,FC,R,316
461,106,462,R,L,R,300
462,106,463,L,L,L,308
463,106,464,L,R,R,278
464,106,465,R,L,L,454
465,106,466,N,FC,R,474
466,106,467,R,L,R,362
467,106,468,N,FC,R,494
468,106,469,R,,{UPARROW},532
469,106,470,L,,{DOWNARROW},400
470,106,471,L,,{DOWNARROW},362
471,106,472,L,,{DOWNARROW},336
472,106,473,R,,{UPARROW},364
473,106,474,L,,{UPARROW},298
474,106,475,R,,{DOWNARROW},818
475,106,476,R,,{UPARROW},458
476,106,477,L,,{DOWNARROW},821
477,106,478,R,,{UPARROW},346
478,106,479,R,,{UPARROW},1124
479,106,480,L,,{UPARROW},542
480,106,481,R,,{DOWNARROW},588
481,106,482,L,,{DOWNARROW},504
482,106,483,R,,{DOWNARROW},730
483,106,484,L,,{DOWNARROW},249
484,106,485,L,,{UPARROW},658
485,106,486,L,,{DOWNARROW},642
486,106,487,R,,{DOWNARROW},423
487,106,488,L,,{UPARROW},277
488,106,489,R,,{DOWNARROW},573
489,106,490,L,,{UPARROW},649
490,106,491,L,,{UPARROW},549
491,106,492,R,,{DOWNARROW},661
492,106,493,L,,{UPARROW},483
493,106,494,R,,{UPARROW},409
494,106,495,L,,{DOWNARROW},601
495,106,496,R,,{UPARROW},338
496,106,497,L,,{DOWNARROW},395
497,106,498,R,,{DOWNARROW},407
498,106,499,R,,{DOWNARROW},1429
499,106,500,R,,{DOWNARROW},765
500,106,501,R,,{UPARROW},1167
501,106,502,R,,{DOWNARROW},777
502,106,503,L,,{DOWNARROW},853
503,106,504,L,,{UPARROW},685
504,106,505,L,,{UPARROW},1219
505,106,506,R,,{UPARROW},544
506,106,507,L,,{DOWNARROW},670
507,106,508,L,,{UPARROW},578
508,106,509,R,,{DOWNARROW},466
509,106,510,R,,{UPARROW},424
510,106,511,L,,{DOWNARROW},466
511,106,512,R,,{DOWNARROW},484
512,106,513,L,,{DOWNARROW},1118
513,106,514,L,,{UPARROW},565
514,106,515,R,,{UPARROW},666
515,106,516,R,,{DOWNARROW},404
516,106,517,R,,{UPARROW},406
517,106,518,L,,{UPARROW},444
0,107,1,L,L,L,490
1,107,2,L,L,R,152
3,107,4,L,L,L,412
4,107,5,R,L,L,526
5,107,6,L,R,R,512
6,107,7,R,R,R,490
7,107,8,R,L,L,404
8,107,9,R,R,R,344
9,107,10,L,R,L,328
10,107,11,L,R,R,394
11,107,12,L,L,R,368
12,107,13,R,R,R,426
13,107,14,R,L,L,344
14,107,15,R,R,R,424
15,107,16,R,L,L,450
16,107,17,R,L,L,440
18,107,19,L,L,L,415
19,107,20,R,R,R,399
21,107,22,R,FC,L,811
22,107,23,L,FC,L,357
23,107,24,R,FC,L,457
25,107,26,L,FC,R,533
26,107,27,R,FC,R,503
27,107,28,L,FC,R,527
28,107,29,L,L,L,400
29,107,30,L,FC,R,628
30,107,31,L,R,R,474
31,107,32,R,R,R,406
32,107,33,L,FC,R,588
33,107,34,R,FC,R,390
34,107,35,L,L,L,336
35,107,36,R,R,R,340
36,107,37,L,R,R,456
37,107,38,R,L,L,540
38,107,39,R,R,R,328
39,107,40,L,FC,L,530
40,107,41,R,FC,L,547
41,107,42,R,FC,L,505
42,107,43,L,R,R,463
43,107,44,R,FC,R,632
44,107,45,L,FC,L,297
45,107,46,R,L,R,317
46,107,47,L,R,R,468
47,107,48,L,L,L,339
48,107,49,R,L,L,430
49,107,50,L,L,L,391
50,107,51,L,L,L,394
51,107,52,L,L,L,356
52,107,53,L,R,L,367
53,107,54,R,R,R,437
54,107,55,L,R,R,505
55,107,56,L,R,R,500
56,107,57,R,L,L,456
57,107,58,R,R,R,360
58,107,59,L,L,L,336
59,107,60,L,L,L,356
60,107,61,L,L,L,392
61,107,62,R,L,L,486
62,107,63,R,R,R,364
63,107,64,R,L,L,436
64,107,65,L,L,L,371
65,107,66,L,L,L,405
66,107,67,L,R,L,331
67,107,68,R,L,L,454
68,107,69,R,L,L,515
69,107,70,R,R,R,335
70,107,71,R,L,L,435
71,107,72,R,L,L,507
72,107,73,R,L,L,489
73,107,74,L,L,L,375
74,107,75,L,R,R,479
75,107,76,R,R,R,451
76,107,77,R,R,R,357
77,107,78,R,R,R,396
78,107,79,L,R,R,496
79,107,80,R,L,L,440
80,107,81,L,L,L,388
81,107,82,R,R,R,366
82,107,83,R,R,R,372
83,107,84,R,L,L,430
84,107,85,L,L,L,428
85,107,86,L,R,R,454
86,107,87,R,L,L,458
87,107,88,L,R,R,466
88,107,89,L,L,L,343
89,107,90,L,R,R,431
90,107,91,L,R,R,485
91,107,92,R,R,R,403
92,107,93,R,R,R,427
93,107,94,R,R,R,357
94,107,95,L,R,R,533
95,107,96,L,L,L,359
96,107,97,L,L,L,399
97,107,98,L,R,R,459
98,107,99,L,L,L,383
99,107,100,R,R,R,343
100,107,101,R,R,R,355
101,107,102,L,R,R,515
102,107,103,R,L,L,495
103,107,104,L,R,R,455
104,107,105,L,R,R,455
105,107,106,R,R,R,363
106,107,107,R,L,L,539
107,107,108,R,L,L,523
108,107,109,L,L,L,321
109,107,110,R,R,R,328
110,107,111,R,FC,R,810
111,107,112,R,L,L,460
112,107,113,R,FC,R,604
113,107,114,L,R,R,463
114,107,115,R,FC,R,574
115,107,116,R,FC,R,532
116,107,117,L,L,L,374
117,107,118,L,FC,R,536
118,107,119,L,R,R,428
119,107,120,L,R,R,478
120,107,121,L,L,L,422
121,107,122,L,FC,R,526
122,107,123,R,FC,R,544
123,107,124,L,FC,R,606
124,107,125,R,R,R,520
125,107,126,L,L,L,372
126,107,127,L,FC,R,498
127,107,128,R,R,R,402
128,107,129,R,FC,R,362
129,107,130,R,R,R,362
130,107,131,L,FC,R,682
131,107,132,R,FC,R,486
132,107,133,L,FC,R,464
133,107,134,R,FC,R,494
134,107,135,R,L,L,446
135,107,136,R,FC,L,512
136,107,137,L,FC,L,659
137,107,138,R,L,L,514
138,107,139,L,FC,L,446
139,107,140,L,FC,L,396
140,107,141,L,R,R,472
141,107,142,L,L,R,470
142,107,143,R,L,L,368
143,107,144,L,R,R,442
144,107,145,R,FC,R,570
145,107,146,L,R,L,316
146,107,147,R,L,L,459
147,107,148,L,FC,R,519
148,107,149,L,FC,R,539
149,107,150,R,FC,R,587
150,107,151,L,R,R,513
151,107,152,R,FC,R,511
152,107,153,R,FC,R,513
153,107,154,R,FC,R,483
154,107,155,L,FC,R,479
155,107,156,R,FC,R,479
156,107,157,R,FC,R,391
157,107,158,R,R,R,465
158,107,159,R,L,L,475
159,107,160,L,R,R,436
160,107,161,L,R,R,499
161,107,162,L,FC,L,523
162,107,163,R,L,L,435
163,107,164,R,FC,R,415
164,107,165,R,L,L,435
165,107,166,L,FC,R,487
166,107,167,R,R,R,425
167,107,168,R,L,L,386
168,107,169,R,FC,R,469
169,107,170,R,L,R,339
170,107,171,R,FC,L,509
171,107,172,R,R,R,451
172,107,173,L,L,L,365
173,107,174,L,R,R,447
174,107,175,L,FC,L,497
175,107,176,L,FC,L,609
176,107,177,R,FC,R,599
177,107,178,R,R,R,371
178,107,179,L,FC,L,385
179,107,180,L,FC,L,567
180,107,181,R,L,L,437
181,107,182,R,FC,R,533
182,107,183,L,R,R,452
183,107,184,L,L,L,325
184,107,185,R,FC,R,331
185,107,186,R,FC,R,465
186,107,187,R,R,R,311
187,107,188,L,R,L,297
188,107,189,L,FC,R,449
189,107,190,L,FC,R,491
190,107,191,L,L,L,341
191,107,192,L,FC,R,457
192,107,193,R,L,L,429
193,107,194,L,FC,R,447
194,107,195,L,R,R,437
195,107,196,L,L,L,369
196,107,197,L,L,L,419
197,107,198,R,FC,R,446
198,107,199,L,FC,L,548
199,107,200,L,FC,R,618
200,107,201,L,FC,R,546
201,107,202,L,R,R,472
202,107,203,L,L,L,322
203,107,204,L,L,L,542
204,107,205,L,FC,R,534
205,107,206,R,R,R,344
206,107,207,L,L,L,369
207,107,208,R,FC,R,550
208,107,209,R,R,R,404
209,107,210,R,L,R,348
210,107,211,L,R,R,562
211,107,212,L,L,L,306
212,107,213,R,L,L,436
213,107,214,L,FC,R,468
214,107,215,R,R,R,330
215,107,216,R,L,R,352
216,107,217,R,R,R,301
217,107,218,L,FC,R,453
218,107,219,R,FC,R,459
219,107,220,R,FC,R,587
220,107,221,L,FC,R,464
221,107,222,R,FC,R,446
222,107,223,L,L,L,380
223,107,224,R,FC,R,376
224,107,225,R,R,R,360
225,107,226,R,FC,L,332
226,107,227,L,FC,R,514
227,107,228,R,R,R,342
228,107,229,L,L,L,346
229,107,230,L,FC,L,364
230,107,231,L,L,L,366
231,107,232,L,FC,R,500
232,107,233,L,FC,R,460
233,107,234,L,FC,R,548
234,107,235,L,R,L,298
235,107,236,R,L,L,430
236,107,237,L,R,R,412
237,107,238,L,L,L,362
238,107,239,R,FC,R,330
239,107,240,L,FC,R,472
240,107,241,R,FC,R,486
241,107,242,R,FC,R,480
242,107,243,L,R,R,476
243,107,244,L,L,L,291
244,107,245,L,L,R,349
245,107,246,R,FC,R,347
246,107,247,L,R,R,493
247,107,248,R,L,L,495
248,107,249,L,L,L,467
249,107,250,R,FC,R,457
250,107,251,L,R,R,481
251,107,252,R,L,L,390
252,107,253,R,FC,R,423
253,107,254,L,FC,R,543
254,107,255,L,R,R,499
255,107,256,L,R,R,527
256,107,257,R,L,L,489
257,107,258,R,FC,R,451
258,107,259,L,FC,R,469
259,107,260,R,FC,R,519
260,107,261,L,FC,L,491
261,107,262,R,L,L,437
262,107,263,L,FC,R,469
263,107,264,R,R,R,374
264,107,265,R,L,R,344
265,107,266,R,FC,R,469
266,107,267,R,L,L,455
267,107,268,R,FC,R,483
268,107,269,R,R,R,417
269,107,270,R,R,R,349
270,107,271,L,L,L,351
271,107,272,L,R,R,473
272,107,273,R,FC,R,509
273,107,274,L,L,L,391
274,107,275,R,FC,R,481
275,107,276,R,FC,R,489
276,107,277,R,R,R,367
277,107,278,L,FC,L,473
278,107,279,R,FC,L,483
279,107,280,L,R,R,487
280,107,281,L,FC,R,481
281,107,282,R,L,L,393
282,107,283,R,R,R,459
283,107,284,R,FC,R,551
284,107,285,R,R,R,401
285,107,286,R,L,R,389
286,107,287,L,FC,R,523
287,107,288,R,FC,L,583
288,107,289,R,FC,L,555
289,107,290,L,R,R,447
290,107,291,R,FC,R,437
291,107,292,L,R,L,341
292,107,293,R,L,L,485
293,107,294,R,FC,R,511
294,107,295,R,R,R,365
295,107,296,L,FC,R,512
296,107,297,R,FC,R,526
297,107,298,R,FC,R,468
298,107,299,R,R,R,463
299,107,300,L,FC,L,566
300,107,301,R,FC,R,656
301,107,302,R,L,L,412
302,107,303,L,FC,L,538
303,107,304,L,FC,R,642
304,107,305,R,FC,R,458
305,107,306,L,L,L,346
306,107,307,L,R,R,460
307,107,308,L,FC,R,472
308,107,309,R,FC,R,498
309,107,310,L,FC,L,477
310,107,311,R,L,L,437
311,107,312,L,L,L,401
312,107,313,R,R,R,369
313,107,314,L,FC,R,631
314,107,315,L,L,L,345
315,107,316,R,L,R,351
316,107,317,L,R,R,441
317,107,318,R,L,L,405
318,107,319,L,FC,R,596
319,107,320,L,FC,L,552
320,107,321,R,R,R,450
321,107,322,L,FC,R,605
322,107,323,R,R,R,378
323,107,324,R,FC,R,446
324,107,325,L,FC,R,504
325,107,326,L,L,L,390
326,107,327,R,R,R,388
328,107,329,L,FC,R,534
329,107,330,L,FC,R,524
330,107,331,L,L,L,368
331,107,332,L,FC,R,570
332,107,333,R,FC,R,636
333,107,334,L,FC,R,480
334,107,335,R,R,R,400
335,107,336,L,FC,R,516
336,107,337,R,R,R,412
337,107,338,R,L,R,386
338,107,339,L,R,R,432
340,107,341,R,FC,R,598
341,107,342,L,FC,L,669
342,107,343,L,L,L,483
345,107,346,L,L,R,359
346,107,347,R,R,R,407
347,107,348,R,FC,R,489
348,107,349,L,L,L,425
349,107,350,L,R,R,454
350,107,351,R,R,L,314
351,107,352,L,L,L,350
352,107,353,N,FC,L,628
353,107,354,R,L,L,414
354,107,355,R,R,R,334
355,107,356,N,FC,L,320
356,107,357,N,FC,R,584
357,107,358,N,FC,R,529
358,107,359,L,L,L,335
359,107,360,L,R,R,359
360,107,361,N,FC,L,375
361,107,362,N,FC,R,507
362,107,363,R,L,R,321
363,107,364,R,L,L,381
364,107,365,N,FC,R,429
365,107,366,N,FC,R,507
366,107,367,R,R,R,317
367,107,368,N,FC,L,525
368,107,369,L,R,R,435
369,107,370,N,FC,R,355
370,107,371,N,FC,R,295
371,107,372,L,L,L,371
372,107,373,N,FC,R,445
373,107,374,L,R,R,423
374,107,375,N,FC,R,371
375,107,376,N,FC,L,413
376,107,377,N,FC,L,463
377,107,378,N,FC,R,471
378,107,379,N,FC,R,353
379,107,380,R,R,R,335
380,107,381,L,L,L,299
381,107,382,N,FC,R,283
382,107,383,L,L,L,358
383,107,384,N,FC,R,350
384,107,385,N,FC,L,328
385,107,386,L,R,R,427
386,107,387,R,L,L,356
387,107,388,L,L,L,412
388,107,389,N,FC,L,318
389,107,390,N,FC,R,454
390,107,391,N,FC,R,362
391,107,392,N,FC,R,314
392,107,393,L,R,L,332
393,107,394,N,FC,R,246
394,107,395,L,L,L,352
395,107,396,R,L,R,322
396,107,397,L,R,L,322
397,107,398,N,FC,R,381
398,107,399,R,L,R,293
399,107,400,N,FC,L,407
400,107,401,L,R,R,493
401,107,402,N,FC,R,503
402,107,403,L,R,L,319
403,107,404,N,FC,R,399
404,107,405,R,L,L,422
405,107,406,R,R,R,282
406,107,407,R,L,L,534
407,107,408,N,FC,R,511
408,107,409,L,R,R,412
409,107,410,R,L,L,398
410,107,411,N,FC,R,394
411,107,412,N,FC,R,476
412,107,413,R,L,L,496
413,107,414,N,FC,R,340
414,107,415,R,R,R,364
415,107,416,N,FC,L,432
416,107,417,R,L,R,326
417,107,418,N,FC,R,472
418,107,419,N,FC,R,530
419,107,420,N,FC,L,396
420,107,421,N,FC,L,400
421,107,422,L,L,L,356
422,107,423,R,R,R,320
423,107,424,N,FC,L,420
424,107,425,N,FC,L,552
425,107,426,R,R,R,334
426,107,427,N,FC,L,400
427,107,428,R,L,L,404
428,107,429,N,FC,R,394
429,107,430,N,FC,L,423
430,107,431,N,FC,L,585
431,107,432,L,R,R,480
432,107,433,N,FC,L,271
433,107,434,N,FC,R,453
434,107,435,R,R,R,331
435,107,436,L,L,L,329
436,107,437,N,FC,R,355
437,107,438,N,FC,R,371
438,107,439,L,R,L,345
439,107,440,R,R,R,315
440,107,441,R,L,R,355
441,107,442,N,FC,R,443
442,107,443,R,R,R,343
443,107,444,R,R,R,415
444,107,445,L,L,L,326
445,107,446,N,FC,R,388
446,107,447,R,L,R,362
447,107,448,L,R,R,406
448,107,449,N,FC,R,472
449,107,450,N,FC,R,678
450,107,451,N,FC,R,446
451,107,452,L,R,R,544
452,107,453,N,FC,R,411
453,107,454,L,L,L,369
454,107,455,N,FC,R,383
455,107,456,R,R,R,335
456,107,457,N,FC,R,383
457,107,458,L,L,L,395
458,107,459,L,L,L,411
459,107,460,L,R,R,417
460,107,461,L,L,L,377
461,107,462,N,FC,R,421
462,107,463,R,R,R,305
463,107,464,N,FC,R,499
464,107,465,R,L,R,283
465,107,466,N,FC,R,491
466,107,467,R,R,R,317
467,107,468,N,FC,R,401
468,107,469,L,,{DOWNARROW},1290
469,107,470,R,,{DOWNARROW},946
470,107,471,R,,{UPARROW},720
471,107,472,L,,{DOWNARROW},873
472,107,473,L,,{UPARROW},1137
473,107,474,L,,{UPARROW},1077
474,107,475,R,,{DOWNARROW},1037
475,107,476,L,,{DOWNARROW},717
476,107,477,R,,{DOWNARROW},1144
477,107,478,R,,{DOWNARROW},798
478,107,479,R,,{UPARROW},1056
479,107,480,L,,{DOWNARROW},1448
480,107,481,L,,{UPARROW},781
481,107,482,L,,{DOWNARROW},535
482,107,483,R,,{DOWNARROW},1375
483,107,484,R,,{DOWNARROW},647
484,107,485,L,,{DOWNARROW},497
485,107,486,R,,{DOWNARROW},553
486,107,487,R,,{DOWNARROW},477
487,107,488,R,,{UPARROW},569
488,107,489,R,,{DOWNARROW},465
489,107,490,L,,{DOWNARROW},1738
490,107,491,R,,{DOWNARROW},308
491,107,492,R,,{DOWNARROW},530
492,107,493,L,,{UPARROW},1178
493,107,494,L,,{DOWNARROW},646
494,107,495,R,,{DOWNARROW},1418
495,107,496,R,,{UPARROW},2357
496,107,497,R,,{DOWNARROW},997
497,107,498,L,,{DOWNARROW},552
498,107,499,R,,{UPARROW},840
499,107,500,L,,{UPARROW},1102
500,107,501,R,,{DOWNARROW},2504
501,107,502,L,,{UPARROW},678
502,107,503,L,,{DOWNARROW},876
503,107,504,L,,{UPARROW},712
504,107,505,L,,{DOWNARROW},612
505,107,506,L,,{UPARROW},367
506,107,507,R,,{DOWNARROW},1017
507,107,508,L,,{UPARROW},501
508,107,509,L,,{DOWNARROW},351
509,107,510,R,,{DOWNARROW},387
510,107,511,L,,{UPARROW},1169
511,107,512,L,,{DOWNARROW},460
512,107,513,R,,{UPARROW},794
513,107,514,L,,{UPARROW},570
514,107,515,R,,{UPARROW},1157
515,107,516,R,,{DOWNARROW},521
516,107,517,R,,{UPARROW},603
517,107,518,L,,{DOWNARROW},589
3,108,4,R,L,L,432
4,108,5,L,L,L,422
5,108,6,R,R,R,386
6,108,7,R,R,L,304
7,108,8,L,R,R,430
8,108,9,R,L,L,452
9,108,10,L,R,R,402
10,108,11,L,L,L,402
11,108,12,L,L,L,453
12,108,13,R,L,L,411
13,108,14,L,L,L,441
14,108,15,R,L,R,346
15,108,16,L,R,R,418
16,108,17,L,FC,R,546
17,108,18,L,L,L,404
18,108,19,L,FC,L,598
19,108,20,R,FC,R,586
20,108,21,R,L,L,376
21,108,22,L,R,R,392
22,108,23,R,L,R,358
23,108,24,L,L,L,406
24,108,25,R,R,R,352
25,108,26,R,R,R,382
26,108,27,R,FC,R,406
27,108,28,R,L,L,404
28,108,29,L,FC,L,478
29,108,30,R,FC,R,482
30,108,31,L,FC,L,542
31,108,32,L,R,R,402
32,108,33,L,FC,R,534
33,108,34,L,L,L,427
34,108,35,R,R,R,369
35,108,36,R,FC,L,479
36,108,37,L,FC,R,400
37,108,38,R,FC,R,347
38,108,39,R,FC,R,353
39,108,40,L,FC,R,683
40,108,41,L,R,R,443
41,108,42,L,L,L,403
42,108,43,R,R,R,369
43,108,44,L,FC,L,583
44,108,45,R,FC,R,431
45,108,46,L,R,R,405
46,108,47,R,FC,R,473
47,108,48,R,L,L,471
48,108,49,R,R,R,456
49,108,50,L,L,L,383
50,108,51,L,R,R,439
51,108,52,L,R,R,403
52,108,53,L,R,R,433
53,108,54,L,L,L,383
54,108,55,R,L,R,327
55,108,56,R,L,L,493
56,108,57,L,R,R,399
57,108,58,L,L,L,383
58,108,59,L,R,R,412
59,108,60,R,L,L,413
60,108,61,L,R,R,387
61,108,62,L,L,L,344
62,108,63,R,L,L,370
63,108,64,R,R,R,300
64,108,65,L,L,L,340
65,108,66,R,R,R,292
66,108,67,L,R,R,534
67,108,68,R,R,R,372
68,108,69,L,L,L,366
69,108,70,R,L,L,523
70,108,71,L,R,R,411
71,108,72,L,R,R,417
72,108,73,R,L,R,365
73,108,74,L,L,L,383
74,108,75,R,R,R,363
75,108,76,L,L,L,351
76,108,77,R,L,L,441
77,108,78,R,L,L,445
78,108,79,R,L,L,455
79,108,80,L,R,R,439
80,108,81,R,R,R,487
81,108,82,R,R,R,357
82,108,83,R,R,R,318
83,108,84,L,R,R,453
84,108,85,R,R,R,335
85,108,86,R,L,L,483
86,108,87,R,L,L,495
87,108,88,R,R,R,331
88,108,89,R,L,L,441
89,108,90,R,L,L,433
90,108,91,L,L,L,375
91,108,92,R,R,R,375
92,108,93,L,R,R,443
93,108,94,L,L,L,347
94,108,95,R,R,R,364
95,108,96,R,R,R,362
96,108,97,L,L,L,370
97,108,98,R,R,R,336
98,108,99,R,R,R,344
99,108,100,L,R,R,446
100,108,101,R,L,L,412
101,108,102,L,L,L,370
102,108,103,L,L,L,448
103,108,104,L,L,L,318
104,108,105,L,L,L,310
105,108,106,L,R,L,384
106,108,107,L,R,R,411
107,108,108,R,L,L,456
111,108,112,R,L,L,435
112,108,113,L,L,L,483
113,108,114,R,FC,R,527
114,108,115,L,FC,R,517
115,108,116,L,R,R,397
116,108,117,L,L,L,441
117,108,118,L,L,L,381
118,108,119,L,FC,R,513
119,108,120,R,R,R,375
120,108,121,L,FC,R,563
121,108,122,R,FC,R,571
122,108,123,L,L,L,429
123,108,124,L,L,R,406
124,108,125,L,FC,R,516
125,108,126,L,R,R,424
126,108,127,R,FC,R,490
127,108,128,L,L,L,360
128,108,129,R,L,L,464
129,108,130,L,FC,R,446
130,108,131,R,FC,R,624
131,108,132,L,R,R,426
132,108,133,R,L,L,396
133,108,134,R,L,L,424
134,108,135,R,R,R,350
135,108,136,R,FC,R,496
136,108,137,R,FC,R,528
137,108,138,R,L,L,462
138,108,139,L,FC,L,594
139,108,140,R,FC,R,554
140,108,141,R,R,R,432
141,108,142,R,FC,R,490
142,108,143,L,L,L,444
143,108,144,L,FC,R,568
144,108,145,R,R,R,390
145,108,146,R,FC,R,488
146,108,147,L,R,R,477
147,108,148,R,FC,R,461
148,108,149,L,L,L,337
149,108,150,L,R,L,346
150,108,151,L,FC,R,579
151,108,152,R,R,R,403
152,108,153,R,L,L,414
153,108,154,L,L,L,438
154,108,155,L,R,R,446
155,108,156,L,L,L,424
156,108,157,R,FC,R,510
157,108,158,R,FC,L,536
158,108,159,R,FC,L,632
159,108,160,R,FC,R,686
160,108,161,R,L,L,460
161,108,162,R,FC,R,632
162,108,163,L,FC,R,530
163,108,164,R,FC,R,496
164,108,165,R,FC,R,496
165,108,166,R,R,R,376
166,108,167,L,FC,R,484
167,108,168,L,L,L,400
168,108,169,L,FC,R,400
169,108,170,R,FC,R,395
170,108,171,L,FC,R,563
171,108,172,R,FC,R,357
172,108,173,L,FC,R,414
173,108,174,R,FC,R,353
174,108,175,L,FC,R,263
176,108,177,L,R,R,425
177,108,178,L,FC,R,511
178,108,179,R,FC,R,409
179,108,180,L,L,L,399
180,108,181,L,R,R,523
181,108,182,R,L,R,415
182,108,183,L,R,R,531
183,108,184,L,FC,R,577
184,108,185,L,FC,R,449
185,108,186,R,FC,R,475
186,108,187,R,R,R,359
187,108,188,R,L,L,515
188,108,189,L,R,R,475
189,108,190,L,FC,R,615
190,108,191,R,FC,R,451
191,108,192,L,FC,L,449
192,108,193,R,R,R,410
193,108,194,L,FC,R,440
194,108,195,R,L,L,480
195,108,196,R,R,R,441
196,108,197,L,R,R,488
197,108,198,R,FC,R,445
198,108,199,R,FC,R,567
199,108,200,L,FC,R,477
200,108,201,L,L,L,417
201,108,202,R,FC,R,445
202,108,203,L,R,R,463
203,108,204,R,R,R,371
204,108,205,L,FC,R,469
205,108,206,R,L,L,499
206,108,207,R,R,R,355
207,108,208,L,FC,L,699
208,108,209,R,L,L,543
209,108,210,R,R,R,407
210,108,211,R,FC,R,477
211,108,212,R,FC,R,533
212,108,213,R,FC,R,463
213,108,214,L,FC,R,487
214,108,215,R,R,R,565
215,108,216,L,L,L,406
216,108,217,R,L,R,356
217,108,218,L,FC,R,536
218,108,219,L,R,R,524
219,108,220,R,R,R,364
220,108,221,L,FC,R,572
221,108,222,R,FC,R,438
222,108,223,L,FC,R,462
223,108,224,L,FC,R,466
225,108,226,R,R,R,432
226,108,227,L,L,L,434
227,108,228,L,FC,R,598
228,108,229,R,FC,R,653
229,108,230,R,FC,R,396
230,108,231,L,FC,R,467
231,108,232,R,FC,R,369
232,108,233,L,FC,R,511
233,108,234,L,FC,R,465
234,108,235,L,FC,R,403
235,108,236,R,FC,R,383
236,108,237,R,R,R,503
237,108,238,L,FC,L,534
238,108,239,L,L,L,418
239,108,240,R,FC,R,410
240,108,241,L,FC,L,572
241,108,242,L,FC,R,510
243,108,244,L,FC,R,472
244,108,245,L,FC,R,406
245,108,246,L,R,R,464
246,108,247,L,L,L,418
247,108,248,R,R,R,390
248,108,249,L,FC,R,411
249,108,250,L,R,R,441
250,108,251,R,FC,R,373
251,108,252,R,L,L,567
252,108,253,L,R,R,413
253,108,254,R,FC,R,369
254,108,255,L,FC,R,439
255,108,256,L,FC,R,403
256,108,257,L,FC,R,445
257,108,258,R,L,L,500
258,108,259,R,L,L,443
259,108,260,R,R,R,499
260,108,261,L,R,R,431
261,108,262,L,FC,L,525
262,108,263,L,FC,R,455
263,108,264,R,FC,R,459
264,108,265,L,L,L,403
265,108,266,L,R,R,499
266,108,267,L,R,R,455
267,108,268,L,L,L,395
268,108,269,L,L,L,385
269,108,270,L,FC,R,507
270,108,271,R,R,R,409
271,108,272,R,FC,R,471
272,108,273,R,L,L,497
273,108,274,R,L,L,472
274,108,275,L,FC,R,530
275,108,276,L,FC,L,488
276,108,277,L,R,R,478
277,108,278,R,FC,R,470
278,108,279,L,L,L,424
279,108,280,L,L,L,358
280,108,281,L,FC,R,631
281,108,282,R,FC,R,740
282,108,283,R,R,R,444
283,108,284,L,L,L,358
284,108,285,L,FC,R,505
285,108,286,L,FC,L,575
286,108,287,R,FC,L,559
287,108,288,R,L,L,431
288,108,289,L,R,R,461
289,108,290,R,FC,R,477
290,108,291,R,L,L,449
291,108,292,R,L,L,483
292,108,293,R,R,R,471
293,108,294,L,L,L,501
294,108,295,L,L,L,433
295,108,296,L,FC,R,423
296,108,297,R,R,R,395
297,108,298,R,FC,R,431
298,108,299,R,FC,R,441
299,108,300,R,FC,R,465
300,108,301,L,R,R,523
301,108,302,L,L,L,454
302,108,303,L,FC,L,518
303,108,304,R,R,R,414
304,108,305,R,L,L,523
305,108,306,L,FC,R,490
306,108,307,R,R,R,404
307,108,308,R,L,L,466
308,108,309,R,FC,R,560
309,108,310,R,R,R,468
310,108,311,R,FC,R,462
311,108,312,R,R,R,410
312,108,313,R,FC,R,472
313,108,314,L,L,L,402
314,108,315,L,R,R,550
315,108,316,R,FC,R,416
316,108,317,R,FC,R,476
317,108,318,R,FC,R,556
318,108,319,R,R,R,496
319,108,320,L,FC,R,492
320,108,321,L,L,L,390
321,108,322,L,L,L,387
322,108,323,L,R,R,494
323,108,324,R,FC,R,408
324,108,325,L,R,R,462
325,108,326,L,FC,R,501
326,108,327,L,FC,R,445
327,108,328,R,FC,R,563
328,108,329,R,FC,R,407
329,108,330,L,L,L,337
330,108,331,L,R,R,357
331,108,332,L,FC,L,325
332,108,333,R,L,L,506
333,108,334,L,R,R,416
334,108,335,R,L,L,384
335,108,336,L,FC,R,540
336,108,337,R,FC,L,384
337,108,338,R,FC,R,520
338,108,339,L,FC,R,568
339,108,340,R,R,R,446
340,108,341,R,R,R,396
341,108,342,R,FC,R,428
342,108,343,R,L,L,454
343,108,344,R,R,R,430
344,108,345,R,FC,R,508
345,108,346,R,L,L,470
346,108,347,R,L,L,480
347,108,348,R,FC,R,420
348,108,349,N,FC,R,583
349,108,350,N,FC,R,587
350,108,351,N,FC,R,401
351,108,352,R,R,R,461
352,108,353,L,L,L,409
353,108,354,R,R,R,459
354,108,355,N,FC,R,619
355,108,356,L,L,L,379
356,108,357,N,FC,L,479
357,108,358,L,R,R,479
358,108,359,L,R,R,483
359,108,360,N,FC,R,419
360,108,361,N,FC,R,419
361,108,362,R,L,L,263
362,108,363,N,FC,R,411
363,108,364,R,R,R,421
364,108,365,N,FC,R,512
365,108,366,R,R,R,442
366,108,367,L,L,L,427
367,108,368,N,FC,R,432
368,108,369,L,R,R,434
369,108,370,N,FC,R,394
370,108,371,R,L,L,407
371,108,372,N,FC,R,453
372,108,373,L,R,R,473
373,108,374,N,FC,R,427
374,108,375,N,FC,R,417
375,108,376,N,FC,R,369
376,108,377,L,L,L,395
377,108,378,L,L,L,355
378,108,379,N,FC,L,711
379,108,380,N,FC,L,445
380,108,381,L,R,R,443
381,108,382,N,FC,R,463
382,108,383,N,FC,R,411
383,108,384,L,R,R,441
384,108,385,N,FC,R,405
385,108,386,N,FC,R,383
386,108,387,L,L,L,415
387,108,388,N,FC,L,438
388,108,389,R,R,R,390
389,108,390,N,FC,R,420
390,108,391,R,R,R,405
391,108,392,R,L,L,446
392,108,393,R,R,R,384
393,108,394,N,FC,R,444
394,108,395,N,FC,R,470
395,108,396,L,R,R,432
396,108,397,L,L,L,438
397,108,398,N,FC,L,418
398,108,399,R,R,R,394
399,108,400,N,FC,R,428
400,108,401,N,FC,R,462
401,108,402,N,FC,R,710
402,108,403,N,FC,R,452
403,108,404,R,R,R,430
404,108,405,N,FC,R,412
405,108,406,N,FC,R,442
406,108,407,N,FC,R,430
407,108,408,L,L,L,416
408,108,409,L,R,R,524
409,108,410,N,FC,R,436
410,108,411,L,L,L,384
411,108,412,L,R,R,456
412,108,413,R,R,R,395
413,108,414,N,FC,R,499
414,108,415,N,FC,R,464
415,108,416,N,FC,L,759
416,108,417,N,FC,R,459
417,108,418,N,FC,L,455
418,108,419,N,FC,R,407
420,108,421,R,R,R,432
421,108,422,R,R,R,414
422,108,423,R,L,L,382
423,108,424,L,L,L,290
424,108,425,N,FC,L,456
425,108,426,L,R,R,460
426,108,427,R,L,L,464
427,108,428,N,FC,L,530
428,108,429,L,L,L,360
429,108,430,L,R,R,452
430,108,431,L,L,L,374
431,108,432,R,L,L,404
432,108,433,N,FC,L,422
433,108,434,L,R,R,478
434,108,435,N,FC,L,458
435,108,436,N,FC,R,433
436,108,437,L,L,L,389
437,108,438,R,L,R,384
438,108,439,N,FC,R,569
439,108,440,N,FC,R,415
440,108,441,N,FC,R,471
441,108,442,N,FC,R,433
442,108,443,L,R,R,423
443,108,444,R,L,L,461
444,108,445,R,L,L,417
445,108,446,N,FC,L,445
446,108,447,R,R,R,403
447,108,448,R,L,L,383
448,108,449,R,L,L,387
449,108,450,L,R,R,493
450,108,451,N,FC,R,447
451,108,452,N,FC,R,393
452,108,453,N,FC,R,391
453,108,454,N,FC,R,373
454,108,455,N,FC,R,503
455,108,456,N,FC,R,423
456,108,457,N,FC,R,395
457,108,458,N,FC,R,393
458,108,459,R,L,L,403
459,108,460,R,L,L,438
460,108,461,N,FC,L,414
461,108,462,R,R,R,399
462,108,463,L,L,L,474
463,108,464,L,R,R,474
464,108,465,N,FC,R,450
465,108,466,R,L,L,428
466,108,467,R,R,R,373
467,108,468,L,L,L,369
468,108,469,L,,{DOWNARROW},1013
469,108,470,L,,{DOWNARROW},861
470,108,471,R,,{DOWNARROW},1679
471,108,472,R,,{DOWNARROW},1565
472,108,473,L,,{DOWNARROW},1383
473,108,474,R,,{DOWNARROW},993
474,108,475,L,,{UPARROW},1893
475,108,476,L,,{DOWNARROW},613
476,108,477,L,,{DOWNARROW},904
477,108,478,R,,{UPARROW},1458
478,108,479,L,,{UPARROW},1137
479,108,480,R,,{DOWNARROW},1133
480,108,481,R,,{DOWNARROW},981
481,108,482,R,,{UPARROW},1283
482,108,483,L,,{UPARROW},997
483,108,484,L,,{UPARROW},809
484,108,485,R,,{DOWNARROW},680
485,108,486,R,,{DOWNARROW},1154
486,108,487,L,,{DOWNARROW},1346
487,108,488,R,,{UPARROW},444
488,108,489,R,,{DOWNARROW},510
489,108,490,L,,{DOWNARROW},526
490,108,491,R,,{DOWNARROW},508
491,108,492,R,,{UPARROW},574
492,108,493,L,,{UPARROW},586
493,108,494,R,,{UPARROW},743
494,108,495,L,,{DOWNARROW},497
495,108,496,L,,{DOWNARROW},1300
496,108,497,L,,{DOWNARROW},534
497,108,498,L,,{UPARROW},386
498,108,499,L,,{UPARROW},388
499,108,500,L,,{DOWNARROW},516
500,108,501,R,,{UPARROW},512
501,108,502,R,,{UPARROW},1260
502,108,503,L,,{UPARROW},509
503,108,504,R,,{UPARROW},457
504,108,505,L,,{UPARROW},353
